stage, millis, accel_x, accel_y, accel_z, quat_w, quat_X, quat_y, quat_z, of_x, of_y
u, 6682,,,,,,,,0.00000000,0.00000000
p, 6682,-0.19874950,0.15640530,-1.94913733,0.14194027,-0.11773083,0.06971855,-0.98037052,
p, 6692,-0.20430180,0.16087477,-1.96029401,0.14106408,-0.11872104,0.07045938,-0.98032480,
p, 6702,-0.20204256,0.16085121,-1.95824301,0.14024067,-0.11965972,0.07115559,-0.98027873,
p, 6712,-0.19179583,0.15786396,-1.96006322,0.13942048,-0.12060320,0.07184072,-0.98023027,
p, 6722,-0.20082498,0.15891093,-1.95789874,0.13820954,-0.12198169,0.07283127,-0.98015696,
p, 6732,-0.19691670,0.16353902,-1.95355868,0.13721494,-0.12312663,0.07366483,-0.98009139,
p, 6743,-0.20193583,0.16850047,-1.96277177,0.13628030,-0.12416360,0.07442768,-0.98003364,
p, 6754,-0.20212606,0.17752722,-1.95703292,0.13542405,-0.12513621,0.07515178,-0.97997367,
p, 6764,-0.20726420,0.16838397,-1.96333396,0.13467376,-0.12610880,0.07587136,-0.97989720,
p, 6775,-0.21114552,0.17072457,-1.95521593,0.13363615,-0.12729314,0.07676585,-0.97981596,
u, 6783,,,,,,,,0.00000000,0.00000000
p, 6785,-0.21251398,0.16872868,-1.95641351,0.13274741,-0.12836544,0.07757580,-0.97973317,
p, 6795,-0.21192411,0.17915957,-1.95152676,0.13191828,-0.12939095,0.07832190,-0.97965091,
p, 6805,-0.21764113,0.18265077,-1.95140266,0.13109508,-0.13037691,0.07905468,-0.97957194,
p, 6816,-0.22252905,0.17435609,-1.95427036,0.12986067,-0.13181883,0.08014748,-0.97945344,
p, 6827,-0.22442371,0.17801362,-1.95214891,0.12879540,-0.13302466,0.08106356,-0.97935581,
p, 6838,-0.21945825,0.18059006,-1.94654870,0.12786058,-0.13411924,0.08189735,-0.97926003,
p, 6848,-0.22547467,0.18118401,-1.94676220,0.12706034,-0.13517335,0.08269300,-0.97915280,
p, 6858,-0.22694936,0.18724117,-1.93772888,0.12586588,-0.13642770,0.08368868,-0.97904778,
p, 6868,-0.23106654,0.18203001,-1.94524384,0.12493040,-0.13756497,0.08458003,-0.97893214,
p, 6878,-0.23386517,0.19092956,-1.94931412,0.12416285,-0.13866490,0.08539655,-0.97880405,
u, 6884,,,,,,,,0.00000000,0.00000000
p, 6888,-0.23402853,0.18664367,-1.93895912,0.12350506,-0.13973948,0.08618496,-0.97866565,
p, 6898,-0.23847422,0.19065765,-1.93536854,0.12254601,-0.14131948,0.08732966,-0.97845668,
p, 6909,-0.24508397,0.18978073,-1.93313837,0.12176542,-0.14263359,0.08828500,-0.97827786,
p, 6920,-0.24546680,0.19428611,-1.93840909,0.12107708,-0.14382640,0.08915444,-0.97811019,
p, 6930,-0.24029474,0.20148265,-1.94229567,0.12043288,-0.14496127,0.08997947,-0.97794688,
p, 6940,-0.23947874,0.20291418,-1.94157624,0.11984519,-0.14609164,0.09076124,-0.97777879,
p, 6950,-0.24738677,0.20629260,-1.94442856,0.11914380,-0.14746618,0.09174092,-0.97756636,
p, 6960,-0.25306502,0.20828699,-1.93489122,0.11850903,-0.14869484,0.09262087,-0.97737455,
p, 6970,-0.25349325,0.20449293,-1.93891168,0.11780690,-0.14984930,0.09348778,-0.97720075,
p, 6980,-0.26615855,0.20511359,-1.93678677,0.11710860,-0.15095514,0.09433095,-0.97703362,
u, 6985,,,,,,,,0.00000000,0.00000000
p, 6990,-0.26062751,0.20511112,-1.92763710,0.11615250,-0.15262452,0.09557530,-0.97676599,
p, 7001,-0.26327884,0.21010713,-1.92743397,0.11536257,-0.15401724,0.09662259,-0.97653806,
p, 7012,-0.26637453,0.20904985,-1.92437220,0.11468494,-0.15528166,0.09756712,-0.97632414,
p, 7022,-0.26775452,0.20624001,-1.92938733,0.11401847,-0.15648794,0.09849261,-0.97611696,
p, 7033,-0.26907015,0.21315876,-1.92571509,0.11322783,-0.15796207,0.09957996,-0.97586071,
p, 7043,-0.26617265,0.21505411,-1.92600751,0.11261631,-0.15930068,0.10055213,-0.97561437,
p, 7053,-0.26411355,0.21880177,-1.92437613,0.11190377,-0.16055912,0.10148129,-0.97539401,
p, 7063,-0.27448231,0.22071375,-1.92389607,0.11081565,-0.16233422,0.10285904,-0.97507846,
p, 7073,-0.27344111,0.21966320,-1.92525828,0.10992810,-0.16382262,0.10402285,-0.97480667,
p, 7084,-0.28183162,0.23293951,-1.91827941,0.10918695,-0.16516630,0.10504331,-0.97455430,
u, 7085,,,,,,,,0.00000000,0.00000000
p, 7095,-0.28833097,0.23995914,-1.91639984,0.10859086,-0.16643903,0.10598505,-0.97430295,
p, 7105,-0.29000899,0.23995942,-1.91583395,0.10807417,-0.16769493,0.10689500,-0.97404599,
p, 7115,-0.28638482,0.23303971,-1.91639018,0.10760169,-0.16896433,0.10779130,-0.97378027,
p, 7125,-0.28845608,0.24116890,-1.91378438,0.10685237,-0.17051435,0.10893229,-0.97346485,
p, 7135,-0.29110914,0.23591802,-1.91866899,0.10631580,-0.17192936,0.10996243,-0.97315896,
p, 7145,-0.29602149,0.23788546,-1.92192757,0.10581295,-0.17327163,0.11094371,-0.97286451,
p, 7155,-0.29171038,0.24143267,-1.90565062,0.10495080,-0.17519042,0.11238426,-0.97244704,
p, 7165,-0.30315804,0.24342752,-1.91221404,0.10429630,-0.17679235,0.11358678,-0.97208792,
p, 7176,-0.30492985,0.24461567,-1.90138137,0.10361713,-0.17823446,0.11467601,-0.97176981,
u, 7186,,,,,,,,0.00000000,0.00000000
p, 7187,-0.30747896,0.23959452,-1.91259718,0.10294789,-0.17960343,0.11573316,-0.97146392,
p, 7197,-0.30358842,0.24901631,-1.89991736,0.10232846,-0.18094236,0.11675259,-0.97115922,
p, 7208,-0.30879188,0.25271249,-1.90593708,0.10152399,-0.18258670,0.11801483,-0.97078252,
p, 7218,-0.31257617,0.26158726,-1.89504623,0.10086574,-0.18406686,0.11912090,-0.97043669,
p, 7228,-0.31838220,0.25867754,-1.89789391,0.10025844,-0.18548703,0.12017171,-0.97009993,
p, 7238,-0.32368085,0.25602487,-1.90003490,0.09963796,-0.18685138,0.12122412,-0.96977127,
p, 7249,-0.32508659,0.25936007,-1.89127111,0.09883544,-0.18888985,0.12277278,-0.96926153,
p, 7260,-0.32554531,0.25958574,-1.89904284,0.09813502,-0.19058771,0.12407614,-0.96883440,
p, 7271,-0.32835340,0.26047677,-1.89245355,0.09738399,-0.19247067,0.12552170,-0.96835113,
p, 7282,-0.32809424,0.26656041,-1.89663577,0.09675562,-0.19412363,0.12676662,-0.96792245,
u, 7286,,,,,,,,0.00000000,0.00000000
p, 7292,-0.33432758,0.27108234,-1.88936555,0.09617527,-0.19564225,0.12791120,-0.96752453,
p, 7302,-0.34017557,0.27484629,-1.89344382,0.09566160,-0.19711784,0.12900627,-0.96713096,
p, 7312,-0.34069631,0.28186285,-1.88463390,0.09518565,-0.19856824,0.13006699,-0.96673942,
p, 7322,-0.34342098,0.27810031,-1.88328838,0.09460724,-0.19998404,0.13115723,-0.96635711,
p, 7332,-0.34905577,0.29137865,-1.87648916,0.09355219,-0.20209700,0.13280492,-0.96579248,
p, 7342,-0.35187316,0.29801780,-1.87308955,0.09302467,-0.20315348,0.13362876,-0.96551013,
p, 7353,-0.35254180,0.29126659,-1.86964262,0.09206085,-0.20546833,0.13545148,-0.96485543,
p, 7364,-0.36000961,0.28992039,-1.86871266,0.09129158,-0.20734572,0.13693100,-0.96431828,
p, 7374,-0.36260673,0.29880694,-1.86659205,0.09059082,-0.20901206,0.13823107,-0.96383989,
p, 7384,-0.36059415,0.29163063,-1.87287116,0.08993179,-0.21059409,0.13946989,-0.96337938,
u, 7386,,,,,,,,0.00000000,0.00000000
p, 7394,-0.36289138,0.29105610,-1.86966312,0.08929737,-0.21214405,0.14066884,-0.96292430,
p, 7404,-0.37694129,0.30164835,-1.86855507,0.08841064,-0.21441613,0.14241171,-0.96224415,
p, 7414,-0.37893850,0.30238974,-1.86407948,0.08765742,-0.21629913,0.14387387,-0.96167427,
p, 7425,-0.38273707,0.29923564,-1.86399317,0.08706404,-0.21801266,0.14520150,-0.96114236,
p, 7436,-0.37594646,0.30215994,-1.85170484,0.08654717,-0.21963249,0.14645022,-0.96063137,
p, 7446,-0.38777944,0.30837518,-1.85869849,0.08605018,-0.22119801,0.14766644,-0.96013105,
p, 7456,-0.38480008,0.31107846,-1.84967542,0.08552413,-0.22275278,0.14886281,-0.95963395,
p, 7466,-0.38539320,0.31353635,-1.84775794,0.08494281,-0.22430015,0.15008229,-0.95913517,
p, 7476,-0.38870338,0.31318602,-1.84056592,0.08423715,-0.22623837,0.15158074,-0.95850515,
u, 7486,,,,,,,,0.00000000,0.00000000
p, 7486,-0.38592577,0.31945771,-1.84585822,0.08360548,-0.22802293,0.15293324,-0.95792258,
p, 7496,-0.39019799,0.31381974,-1.85091519,0.08278598,-0.23049992,0.15483585,-0.95709211,
p, 7507,-0.39567578,0.32355875,-1.84400618,0.08217144,-0.23254979,0.15638325,-0.95639789,
p, 7518,-0.40104681,0.32516286,-1.84231400,0.08166649,-0.23440105,0.15777296,-0.95576173,
p, 7528,-0.40461734,0.33559322,-1.83177865,0.08126396,-0.23614411,0.15905125,-0.95515585,
p, 7538,-0.40782928,0.32415342,-1.83456755,0.08090518,-0.23786545,0.16032155,-0.95454717,
p, 7548,-0.41399765,0.32663512,-1.83208632,0.08054239,-0.23955119,0.16157144,-0.95394570,
p, 7558,-0.40946007,0.33534515,-1.82621467,0.08010150,-0.24121767,0.16283213,-0.95334852,
p, 7568,-0.41244030,0.34297317,-1.82446146,0.07948497,-0.24372190,0.16473699,-0.95243233,
p, 7579,-0.42921972,0.33937904,-1.81673360,0.07895296,-0.24578935,0.16633128,-0.95166814,
u, 7587,,,,,,,,0.00000000,0.00000000
p, 7590,-0.42243457,0.34457815,-1.81281626,0.07845119,-0.24766916,0.16777736,-0.95096898,
p, 7600,-0.43218744,0.34491175,-1.81468749,0.07797252,-0.24945587,0.16915458,-0.95029783,
p, 7610,-0.43191403,0.34769544,-1.81382263,0.07750478,-0.25120714,0.17050049,-0.94963443,
p, 7620,-0.43662199,0.35558754,-1.80353308,0.07704090,-0.25293249,0.17181855,-0.94897676,
p, 7630,-0.44626206,0.36000660,-1.80395770,0.07645405,-0.25508636,0.17345837,-0.94814759,
p, 7640,-0.45055565,0.36330712,-1.80411661,0.07569827,-0.25789535,0.17561281,-0.94704723,
p, 7650,-0.44805616,0.36880261,-1.79547572,0.07505082,-0.26016974,0.17737202,-0.94614899,
p, 7661,-0.44802710,0.36323431,-1.79996717,0.07451238,-0.26219815,0.17895052,-0.94533539,
p, 7672,-0.44802022,0.36673677,-1.78857160,0.07409277,-0.26411763,0.18039472,-0.94456041,
p, 7682,-0.44900095,0.37308854,-1.78653586,0.07366278,-0.26597244,0.18180844,-0.94380301,
u, 7687,,,,,,,,0.00000000,0.00000000
p, 7692,-0.45802861,0.37717232,-1.77918553,0.07323639,-0.26778996,0.18319094,-0.94305515,
p, 7702,-0.46620455,0.37940496,-1.77965319,0.07284052,-0.26959836,0.18455672,-0.94230425,
p, 7712,-0.46638626,0.37804171,-1.77398944,0.07240143,-0.27139825,0.18594624,-0.94154811,
p, 7722,-0.46553871,0.37452197,-1.77958047,0.07177232,-0.27366057,0.18773100,-0.94058490,
p, 7732,-0.46809042,0.37881219,-1.77338862,0.07091794,-0.27660817,0.19008011,-0.93931019,
p, 7742,-0.48035258,0.37580746,-1.76431882,0.07024661,-0.27898687,0.19198084,-0.93827081,
p, 7753,-0.48477468,0.37113890,-1.75939488,0.06967178,-0.28108853,0.19367741,-0.93733883,
p, 7764,-0.48701626,0.39217347,-1.76167071,0.06913589,-0.28306264,0.19523692,-0.93646193,
p, 7774,-0.48667982,0.39143738,-1.75482821,0.06860751,-0.28496617,0.19675626,-0.93560600,
p, 7784,-0.49070776,0.39762300,-1.75047624,0.06805042,-0.28684804,0.19826207,-0.93475389,
u, 7787,,,,,,,,0.00000000,0.00000000
p, 7794,-0.49739093,0.39753434,-1.75686812,0.06758350,-0.28873760,0.19974683,-0.93388981,
p, 7804,-0.49908456,0.39880991,-1.75090110,0.06704739,-0.29111683,0.20159680,-0.93278974,
p, 7814,-0.50385290,0.40384221,-1.74253130,0.06651862,-0.29323745,0.20329255,-0.93179488,
p, 7824,-0.50702286,0.40876925,-1.73801064,0.06577586,-0.29619348,0.20565712,-0.93038833,
p, 7834,-0.51452065,0.41824418,-1.72787678,0.06505941,-0.29861143,0.20760699,-0.92923272,
p, 7845,-0.51706409,0.41540566,-1.72687626,0.06452748,-0.30078566,0.20933184,-0.92818272,
p, 7856,-0.50814295,0.41737384,-1.72160769,0.06405516,-0.30285701,0.21094948,-0.92717642,
p, 7866,-0.51982617,0.41692361,-1.72052217,0.06355861,-0.30485576,0.21256411,-0.92618710,
p, 7876,-0.52668250,0.42763907,-1.71641648,0.06304372,-0.30682153,0.21414419,-0.92520922,
p, 7886,-0.52526599,0.42812160,-1.71734667,0.06253564,-0.30877841,0.21573131,-0.92422378,
u, 7887,,,,,,,,0.00000000,0.00000000
p, 7896,-0.52535880,0.43524456,-1.70349145,0.06195748,-0.31123692,0.21766773,-0.92298114,
p, 7906,-0.54565364,0.43125296,-1.70758832,0.06156272,-0.31345648,0.21939752,-0.92184639,
p, 7916,-0.54097712,0.43456721,-1.70058823,0.06105426,-0.31658304,0.22178441,-0.92023444,
p, 7927,-0.54500180,0.43524778,-1.69436455,0.06057864,-0.31913576,0.22378537,-0.91889948,
p, 7938,-0.54486263,0.43510741,-1.69775295,0.06011074,-0.32142046,0.22560078,-0.91769081,
p, 7948,-0.54847807,0.43988952,-1.68033552,0.05965789,-0.32356289,0.22730637,-0.91654736,
p, 7958,-0.54787493,0.44273835,-1.67689109,0.05919918,-0.32564270,0.22896692,-0.91542751,
p, 7968,-0.55079293,0.45022812,-1.66991222,0.05871587,-0.32769442,0.23060945,-0.91431409,
p, 7978,-0.55790532,0.44882315,-1.67064953,0.05824622,-0.32974222,0.23225090,-0.91319203,
u, 7987,,,,,,,,0.00000000,0.00000000
p, 7988,-0.56101137,0.45050868,-1.66602087,0.05751621,-0.33278888,0.23473063,-0.91149187,
p, 7999,-0.56064939,0.44791061,-1.66102862,0.05688796,-0.33534265,0.23681447,-0.91005540,
p, 8010,-0.55807281,0.45038047,-1.66179025,0.05619656,-0.33816671,0.23914194,-0.90844166,
p, 8021,-0.56313980,0.45232493,-1.64968944,0.05560945,-0.34060621,0.24115333,-0.90703511,
p, 8032,-0.57397407,0.45862249,-1.64678228,0.05514190,-0.34286636,0.24297452,-0.90572697,
p, 8042,-0.57819343,0.46196961,-1.64377999,0.05476400,-0.34506601,0.24469608,-0.90445149,
p, 8052,-0.58713138,0.47508729,-1.63633549,0.05447032,-0.34723437,0.24636163,-0.90318727,
p, 8062,-0.58746523,0.47426850,-1.62613583,0.05416519,-0.34939498,0.24801618,-0.90191913,
p, 8072,-0.58860874,0.48022965,-1.61924314,0.05375268,-0.35207370,0.25007945,-0.90032840,
p, 8082,-0.59137011,0.47268164,-1.62170959,0.05337521,-0.35448480,0.25196266,-0.89887869,
u, 8088,,,,,,,,0.00000000,0.00000000
p, 8092,-0.59440637,0.48344928,-1.60301483,0.05270343,-0.35778347,0.25464928,-0.89684594,
p, 8103,-0.59980786,0.48682657,-1.60807180,0.05216946,-0.36050248,0.25685766,-0.89515793,
p, 8114,-0.61074835,0.48458606,-1.60422969,0.05174306,-0.36293113,0.25883663,-0.89363223,
p, 8124,-0.60325623,0.48558679,-1.59688413,0.05133408,-0.36522937,0.26068878,-0.89218175,
p, 8134,-0.60630798,0.48745281,-1.59194493,0.05089621,-0.36744577,0.26248193,-0.89077127,
p, 8144,-0.61367035,0.49462667,-1.58842242,0.05053762,-0.36966020,0.26420951,-0.88936448,
p, 8154,-0.61456680,0.49870187,-1.57648349,0.05014236,-0.37240976,0.26635534,-0.88759530,
p, 8164,-0.62008095,0.49772587,-1.57598436,0.04973105,-0.37486643,0.26832280,-0.88599050,
p, 8174,-0.62201405,0.49813050,-1.56947875,0.04938079,-0.37718686,0.27017158,-0.88446301,
p, 8184,-0.62693262,0.50277317,-1.56097686,0.04889956,-0.38053668,0.27283621,-0.88222754,
u, 8189,,,,,,,,0.00000000,0.00000000
p, 8195,-0.63123822,0.49793810,-1.55281973,0.04853556,-0.38332304,0.27505094,-0.88035250,
p, 8206,-0.63766348,0.50272274,-1.54143214,0.04820806,-0.38581413,0.27702603,-0.87866366,
p, 8217,-0.63491756,0.51009703,-1.53693616,0.04786379,-0.38816738,0.27889389,-0.87705559,
p, 8228,-0.63918269,0.51666045,-1.52425885,0.04740212,-0.39097148,0.28118557,-0.87509906,
p, 8238,-0.63826352,0.52879226,-1.52469504,0.04696521,-0.39347574,0.28321502,-0.87334490,
p, 8248,-0.65058315,0.52518409,-1.51970983,0.04657894,-0.39582562,0.28512055,-0.87168348,
p, 8258,-0.64989179,0.52400565,-1.51176989,0.04603607,-0.39926377,0.28785729,-0.86923432,
p, 8268,-0.66108179,0.52278316,-1.51055408,0.04560113,-0.40209442,0.29014009,-0.86719215,
p, 8279,-0.65991712,0.52417845,-1.50218713,0.04522706,-0.40464288,0.29216868,-0.86534584,
u, 8290,,,,,,,,0.00000000,0.00000000
p, 8290,-0.65879309,0.52958345,-1.48731494,0.04481821,-0.40760425,0.29451713,-0.86317682,
p, 8301,-0.66851550,0.52913499,-1.48162591,0.04446473,-0.41020262,0.29657581,-0.86125892,
p, 8311,-0.66731131,0.53429711,-1.47290683,0.04411990,-0.41263229,0.29850271,-0.85945034,
p, 8321,-0.67062312,0.54054791,-1.46950853,0.04382390,-0.41498026,0.30034089,-0.85769427,
p, 8331,-0.66008723,0.53950763,-1.45531249,0.04360850,-0.41731831,0.30210507,-0.85595047,
p, 8341,-0.66842252,0.53756845,-1.45658386,0.04341679,-0.42081350,0.30471557,-0.85331172,
p, 8352,-0.67623699,0.54071873,-1.44806433,0.04317145,-0.42370489,0.30691481,-0.85110301,
p, 8363,-0.67717642,0.54763448,-1.44170642,0.04291705,-0.42630136,0.30891064,-0.84909713,
p, 8374,-0.68393278,0.55373973,-1.43177545,0.04268436,-0.42875081,0.31079635,-0.84718734,
p, 8385,-0.68949294,0.55333626,-1.41969943,0.04244484,-0.43170580,0.31307209,-0.84485495,
u, 8391,,,,,,,,0.00000000,0.00000000
p, 8395,-0.69484413,0.55259281,-1.41810930,0.04225714,-0.43433884,0.31508017,-0.84276688,
p, 8405,-0.69909900,0.54778838,-1.41317916,0.04209541,-0.43681192,0.31697616,-0.84078503,
p, 8415,-0.70147824,0.55982101,-1.40801322,0.04189751,-0.44040832,0.31963682,-0.83789861,
p, 8425,-0.70325530,0.56182426,-1.39782381,0.04179462,-0.44340467,0.32180247,-0.83549237,
p, 8436,-0.70423537,0.56879973,-1.38947892,0.04163245,-0.44607049,0.32377583,-0.83331913,
p, 8447,-0.70480931,0.56555831,-1.38423836,0.04147487,-0.44858459,0.32563370,-0.83125341,
p, 8457,-0.69662005,0.57281059,-1.37028837,0.04138557,-0.45104808,0.32739457,-0.82923234,
p, 8468,-0.70674658,0.57252288,-1.36667800,0.04126801,-0.45405972,0.32955611,-0.82673144,
p, 8478,-0.71085620,0.57511795,-1.35765541,0.04109053,-0.45672676,0.33152425,-0.82448196,
p, 8488,-0.71243799,0.57059425,-1.35323572,0.04089723,-0.45922717,0.33338940,-0.82234931,
u, 8492,,,,,,,,0.00000000,0.00000000
p, 8498,-0.71150464,0.57106376,-1.34717298,0.04072968,-0.46165952,0.33519709,-0.82025933,
p, 8509,-0.72025430,0.58131588,-1.32959235,0.04047788,-0.46522468,0.33783796,-0.81715918,
p, 8520,-0.71966237,0.57791227,-1.32107663,0.04029849,-0.46817747,0.34002888,-0.81456983,
p, 8531,-0.71589506,0.58374834,-1.31948912,0.04012905,-0.47084314,0.34198585,-0.81222194,
p, 8541,-0.70976943,0.58124948,-1.31136346,0.03995387,-0.47334594,0.34383684,-0.80999386,
p, 8551,-0.71246684,0.58361638,-1.31114590,0.03984667,-0.47581226,0.34559986,-0.80780256,
p, 8561,-0.72139150,0.58730990,-1.30193520,0.03986310,-0.47886711,0.34770092,-0.80508685,
p, 8571,-0.72106254,0.58832502,-1.28629017,0.03993068,-0.48163041,0.34952438,-0.80264264,
p, 8581,-0.72566646,0.58932853,-1.27440882,0.03991928,-0.48540831,0.35208297,-0.79923260,
p, 8591,-0.73652101,0.58680904,-1.27055097,0.03989042,-0.48847550,0.35421658,-0.79641962,
u, 8592,,,,,,,,0.00000000,0.00000000
p, 8602,-0.73804963,0.58613676,-1.25873435,0.03990070,-0.49122685,0.35608384,-0.79389393,
p, 8613,-0.73758560,0.58734941,-1.24759984,0.03998050,-0.49382898,0.35777539,-0.79151475,
p, 8623,-0.73782659,0.59241128,-1.24358904,0.04014715,-0.49639994,0.35934526,-0.78918564,
p, 8633,-0.73229373,0.58864033,-1.23995090,0.04024908,-0.49890652,0.36092043,-0.78687894,
p, 8643,-0.73392183,0.59099680,-1.23221147,0.04034251,-0.50198174,0.36292028,-0.78398895,
p, 8653,-0.74148023,0.58951235,-1.22594619,0.04043526,-0.50474238,0.36469829,-0.78138286,
p, 8663,-0.74660224,0.59780335,-1.21260536,0.04052223,-0.50734115,0.36636293,-0.77891427,
p, 8673,-0.73904669,0.60630524,-1.20765162,0.04058190,-0.50986814,0.36797142,-0.77650046,
p, 8683,-0.74831516,0.59637314,-1.19251752,0.04066194,-0.51351929,0.37037048,-0.77293116,
u, 8692,,,,,,,,0.00000000,0.00000000
p, 8694,-0.75103438,0.59844136,-1.18566763,0.04070508,-0.51653969,0.37237275,-0.76994967,
p, 8705,-0.75143272,0.59915507,-1.17567372,0.04070222,-0.51921427,0.37418222,-0.76727241,
p, 8715,-0.75308907,0.59967977,-1.17088282,0.04067741,-0.52172989,0.37590593,-0.76472342,
p, 8725,-0.75509983,0.60010231,-1.16016364,0.04065020,-0.52415156,0.37758523,-0.76223958,
p, 8736,-0.75014663,0.60395283,-1.14617527,0.04078573,-0.52781224,0.37988746,-0.75854301,
p, 8747,-0.76076210,0.60329175,-1.14375114,0.04092115,-0.53085488,0.38178593,-0.75545430,
p, 8757,-0.75522083,0.60766089,-1.13005733,0.04102401,-0.53356910,0.38347724,-0.75267845,
p, 8767,-0.75743985,0.60478717,-1.12507963,0.04115534,-0.53614312,0.38505507,-0.75003505,
p, 8777,-0.75645125,0.60703528,-1.11253524,0.04134491,-0.53866649,0.38651502,-0.74746341,
p, 8787,-0.75681144,0.60328418,-1.09687126,0.04154911,-0.54231840,0.38868117,-0.74366796,
u, 8792,,,,,,,,0.00000000,0.00000000
p, 8798,-0.75652611,0.60603964,-1.09700441,0.04174101,-0.54535848,0.39046541,-0.74049401,
p, 8809,-0.75665814,0.60809642,-1.09086061,0.04188713,-0.54808497,0.39206630,-0.73762488,
p, 8819,-0.75963092,0.60883486,-1.07963288,0.04196958,-0.55061698,0.39361811,-0.73490614,
p, 8829,-0.76426828,0.61424714,-1.07197428,0.04206125,-0.55307698,0.39509043,-0.73226118,
p, 8839,-0.76530522,0.61394727,-1.06997609,0.04215825,-0.55549574,0.39654255,-0.72963643,
p, 8849,-0.75733984,0.60893744,-1.05702174,0.04229668,-0.55906832,0.39868730,-0.72570878,
p, 8859,-0.75812548,0.60725653,-1.04918647,0.04247630,-0.56207919,0.40040493,-0.72242045,
p, 8869,-0.76183712,0.61360294,-1.03526676,0.04275345,-0.56540048,0.40218568,-0.71881163,
p, 8879,-0.75790220,0.61023772,-1.02334023,0.04299450,-0.56825876,0.40370652,-0.71568757,
p, 8890,-0.75694180,0.60371810,-1.01313496,0.04322704,-0.57088310,0.40509504,-0.71279860,
u, 8892,,,,,,,,0.00000000,0.00000000
p, 8901,-0.76139021,0.61070454,-1.00425577,0.04344601,-0.57340872,0.40639335,-0.71001649,
p, 8912,-0.76872611,0.61129099,-1.00360036,0.04367685,-0.57587230,0.40766445,-0.70727634,
p, 8923,-0.77040279,0.61692476,-0.98981440,0.04397444,-0.57890242,0.40919510,-0.70388770,
p, 8933,-0.76995939,0.61799455,-0.97671872,0.04426349,-0.58162487,0.41053537,-0.70083916,
p, 8943,-0.76039934,0.61479867,-0.96280086,0.04458068,-0.58420408,0.41172609,-0.69797146,
p, 8953,-0.76173043,0.61523777,-0.94488615,0.04493478,-0.58784878,0.41352230,-0.69380265,
p, 8963,-0.76296055,0.60805678,-0.94656420,0.04528613,-0.59087557,0.41496652,-0.69033957,
p, 8974,-0.76072222,0.60506904,-0.93368554,0.04561844,-0.59358346,0.41620821,-0.68724453,
p, 8985,-0.76115179,0.61364597,-0.93544018,0.04590400,-0.59614176,0.41736305,-0.68430817,
u, 8993,,,,,,,,0.00000000,0.00000000
p, 8995,-0.75824618,0.61945271,-0.91796881,0.04616552,-0.59860003,0.41845816,-0.68147278,
p, 9005,-0.75313890,0.60655558,-0.92108917,0.04642262,-0.60101640,0.41954762,-0.67865443,
p, 9016,-0.75737542,0.60285360,-0.92123032,0.04679699,-0.60458839,0.42115349,-0.67443550,
p, 9026,-0.75433624,0.61247718,-0.90122795,0.04716815,-0.60758853,0.42240345,-0.67092395,
p, 9036,-0.76028579,0.60412830,-0.89894009,0.04759733,-0.61032790,0.42346013,-0.66773725,
p, 9046,-0.75607371,0.59628415,-0.88505507,0.04799608,-0.61289030,0.42444491,-0.66473317,
p, 9056,-0.75082433,0.60954344,-0.87367225,0.04836905,-0.61646265,0.42594090,-0.66042089,
p, 9067,-0.75976580,0.61023742,-0.86308277,0.04866599,-0.61939192,0.42717689,-0.65685296,
p, 9078,-0.74918377,0.60924160,-0.85651392,0.04896970,-0.62205303,0.42821908,-0.65363377,
p, 9088,-0.74881369,0.60009199,-0.85176468,0.04927146,-0.62454462,0.42917925,-0.65060234,
u, 9094,,,,,,,,0.00000000,0.00000000
p, 9098,-0.74914742,0.60710621,-0.84449196,0.04952766,-0.62693250,0.43013167,-0.64765346,
p, 9108,-0.74688053,0.60728693,-0.83330250,0.04977569,-0.62926561,0.43105268,-0.64475483,
p, 9118,-0.74573183,0.60721707,-0.82578516,0.05002058,-0.63156658,0.43195322,-0.64187813,
p, 9128,-0.74290681,0.60141432,-0.81643414,0.05026982,-0.63384402,0.43285149,-0.63900292,
p, 9139,-0.74356186,0.59762031,-0.80843222,0.05071350,-0.63729566,0.43406737,-0.63468170,
p, 9150,-0.74622399,0.59110749,-0.80908519,0.05110166,-0.64018577,0.43505162,-0.63105845,
p, 9161,-0.74499917,0.59444290,-0.79117739,0.05144864,-0.64277184,0.43591270,-0.62780273,
p, 9171,-0.74885762,0.59711766,-0.78305513,0.05177907,-0.64518261,0.43672943,-0.62473118,
p, 9181,-0.74794871,0.60208666,-0.76883924,0.05202276,-0.64746916,0.43756700,-0.62175500,
p, 9192,-0.73810244,0.59446222,-0.76343268,0.05234659,-0.65080130,0.43877077,-0.61737287,
u, 9194,,,,,,,,0.00000000,0.00000000
p, 9202,-0.74344850,0.59522760,-0.76059210,0.05268032,-0.65360516,0.43969852,-0.61371315,
p, 9212,-0.73783600,0.58892697,-0.74932224,0.05307879,-0.65618360,0.44039518,-0.61042315,
p, 9222,-0.73695236,0.58424318,-0.74165785,0.05348029,-0.65860927,0.44102371,-0.60731786,
p, 9232,-0.74471974,0.58167237,-0.73742133,0.05404028,-0.66208470,0.44189739,-0.60282540,
p, 9243,-0.74146235,0.58731449,-0.72256196,0.05449303,-0.66495049,0.44259119,-0.59911257,
p, 9254,-0.73488981,0.57312959,-0.71953446,0.05487668,-0.66748714,0.44319698,-0.59580505,
p, 9264,-0.72710979,0.57293415,-0.71311498,0.05520183,-0.66984928,0.44378403,-0.59268337,
p, 9274,-0.72215170,0.57897806,-0.70480120,0.05550751,-0.67213142,0.44432032,-0.58966482,
p, 9284,-0.72444868,0.58593678,-0.68969613,0.05583265,-0.67438918,0.44479215,-0.58669508,
u, 9294,,,,,,,,0.00000000,0.00000000
p, 9294,-0.72919059,0.57482111,-0.68003786,0.05638008,-0.67775655,0.44540218,-0.58226907,
p, 9304,-0.72578609,0.58488065,-0.67089814,0.05679630,-0.68052316,0.44591570,-0.57859874,
p, 9315,-0.71804136,0.58183849,-0.66545093,0.05721797,-0.68303561,0.44629985,-0.57529539,
p, 9326,-0.71127748,0.57982153,-0.65773767,0.05764104,-0.68540668,0.44661674,-0.57218271,
p, 9336,-0.71666169,0.56611013,-0.66007614,0.05805799,-0.68769604,0.44693190,-0.56914210,
p, 9346,-0.71743119,0.57091975,-0.64018059,0.05843864,-0.68993175,0.44721872,-0.56616616,
p, 9356,-0.71121651,0.56690824,-0.63941860,0.05879513,-0.69213688,0.44750097,-0.56320822,
p, 9367,-0.70562959,0.57084578,-0.62920332,0.05933162,-0.69540817,0.44785184,-0.55881214,
p, 9377,-0.70424759,0.56612360,-0.62453818,0.05974948,-0.69810575,0.44816354,-0.55514348,
p, 9387,-0.70054299,0.56293088,-0.62193096,0.06013460,-0.70052946,0.44842219,-0.55183423,
u, 9394,,,,,,,,0.00000000,0.00000000
p, 9397,-0.69196916,0.55543697,-0.60409445,0.06060377,-0.70384347,0.44874895,-0.54726994,
p, 9407,-0.69367898,0.56106657,-0.59545088,0.06098071,-0.70654345,0.44901520,-0.54352164,
p, 9418,-0.69049793,0.56056261,-0.59485221,0.06132174,-0.70893431,0.44923502,-0.54018426,
p, 9429,-0.68754172,0.55818963,-0.58412349,0.06164612,-0.71117514,0.44941533,-0.53704768,
p, 9439,-0.68449199,0.55536282,-0.56939787,0.06196236,-0.71333528,0.44953242,-0.53404355,
p, 9449,-0.68914694,0.55815321,-0.56555986,0.06229747,-0.71547788,0.44960269,-0.53107297,
p, 9459,-0.68473768,0.55324650,-0.55746865,0.06261702,-0.71757954,0.44965523,-0.52814877,
p, 9469,-0.68576789,0.54767275,-0.55092061,0.06292289,-0.71964657,0.44971853,-0.52523899,
p, 9480,-0.67882144,0.54667115,-0.54393870,0.06334396,-0.72267872,0.44981590,-0.52090991,
p, 9491,-0.67490572,0.54422486,-0.53897524,0.06370591,-0.72521627,0.44984633,-0.51730150,
u, 9494,,,,,,,,0.00000000,0.00000000
p, 9502,-0.67101002,0.53885895,-0.53478456,0.06402536,-0.72749126,0.44985899,-0.51405060,
p, 9512,-0.66687250,0.53886151,-0.52808106,0.06433843,-0.72963762,0.44983780,-0.51098263,
p, 9522,-0.66334653,0.53859580,-0.52403504,0.06465399,-0.73173809,0.44975930,-0.50800216,
p, 9532,-0.66108763,0.53332835,-0.51722074,0.06496593,-0.73378736,0.44966608,-0.50508243,
p, 9542,-0.65991241,0.53696597,-0.50643599,0.06537867,-0.73678482,0.44953582,-0.50074899,
p, 9552,-0.66609967,0.53482515,-0.50188285,0.06569409,-0.73924756,0.44945264,-0.49714142,
p, 9562,-0.65719229,0.52956617,-0.49659267,0.06593941,-0.74141157,0.44940960,-0.49391973,
p, 9572,-0.65000725,0.53101844,-0.49119335,0.06621394,-0.74349344,0.44926155,-0.49088287,
p, 9582,-0.65110683,0.52041495,-0.48644140,0.06661323,-0.74644649,0.44905049,-0.48650828,
p, 9593,-0.64888716,0.51332790,-0.47649705,0.06695667,-0.74889827,0.44881165,-0.48290288,
u, 9594,,,,,,,,0.00000000,0.00000000
p, 9604,-0.64622092,0.51361430,-0.46813744,0.06726450,-0.75107992,0.44856787,-0.47969320,
p, 9614,-0.63673961,0.50930196,-0.45743451,0.06753545,-0.75309420,0.44835186,-0.47669446,
p, 9624,-0.63556188,0.50243843,-0.44949669,0.06780009,-0.75503492,0.44811007,-0.47380903,
p, 9634,-0.63413382,0.50330967,-0.44244549,0.06808071,-0.75696814,0.44781142,-0.47095990,
p, 9644,-0.63574672,0.50316548,-0.44270408,0.06833422,-0.75885570,0.44752842,-0.46814764,
p, 9654,-0.62581098,0.50629771,-0.43044323,0.06873369,-0.76168650,0.44700187,-0.46396166,
p, 9665,-0.62950248,0.50750524,-0.42399999,0.06904124,-0.76401627,0.44657671,-0.46048313,
p, 9676,-0.61950743,0.50479782,-0.42586720,0.06926996,-0.76607168,0.44622248,-0.45737159,
p, 9686,-0.62094146,0.50307792,-0.41992670,0.06944932,-0.76796442,0.44594270,-0.45443809,
u, 9695,,,,,,,,0.00000000,0.00000000
p, 9697,-0.62541974,0.49915096,-0.41159299,0.06962822,-0.76979804,0.44563371,-0.45160568,
p, 9707,-0.62286764,0.49340332,-0.41062284,0.06985378,-0.77164030,0.44522965,-0.44881845,
p, 9717,-0.61245918,0.48901886,-0.40997756,0.07019658,-0.77437663,0.44456062,-0.44468170,
p, 9727,-0.60369205,0.49058029,-0.39535743,0.07047890,-0.77664536,0.44396424,-0.44126469,
p, 9737,-0.59961367,0.48096979,-0.39425769,0.07077229,-0.77870834,0.44334885,-0.43819427,
p, 9747,-0.59252381,0.47723264,-0.38944298,0.07104008,-0.78064644,0.44274378,-0.43530869,
p, 9757,-0.58571351,0.48039946,-0.37345532,0.07134274,-0.78335208,0.44193098,-0.43119293,
p, 9768,-0.59282929,0.47404069,-0.37150395,0.07160377,-0.78556681,0.44126630,-0.42779088,
p, 9779,-0.58788800,0.48094735,-0.36781222,0.07185899,-0.78756905,0.44059885,-0.42474914,
p, 9789,-0.58692038,0.47033209,-0.36497453,0.07210624,-0.78945124,0.43993813,-0.42189288,
u, 9796,,,,,,,,0.00000000,0.00000000
p, 9799,-0.58331615,0.46606204,-0.35794806,0.07231767,-0.79125369,0.43929848,-0.41914096,
p, 9809,-0.57377017,0.46841311,-0.35182559,0.07252721,-0.79301226,0.43863791,-0.41646683,
p, 9819,-0.56953889,0.46244752,-0.33962435,0.07280720,-0.79554987,0.43772107,-0.41251057,
p, 9829,-0.56453168,0.45832795,-0.33606431,0.07301372,-0.79763246,0.43697301,-0.40923458,
p, 9840,-0.57449454,0.44902024,-0.34244776,0.07319114,-0.79948938,0.43630248,-0.40628886,
p, 9851,-0.55901396,0.45247644,-0.33284497,0.07334277,-0.80123806,0.43563497,-0.40352780,
p, 9861,-0.56522781,0.44673535,-0.32748663,0.07349284,-0.80291098,0.43498546,-0.40087044,
p, 9871,-0.56321537,0.44855690,-0.32740146,0.07361327,-0.80454028,0.43436909,-0.39824361,
p, 9881,-0.56100374,0.44929981,-0.32365099,0.07375586,-0.80616808,0.43369871,-0.39564866,
p, 9891,-0.55845594,0.44409418,-0.32953483,0.07388324,-0.80779064,0.43301004,-0.39306194,
u, 9897,,,,,,,,0.00000000,0.00000000
p, 9901,-0.55357337,0.44339871,-0.32052150,0.07400359,-0.80976844,0.43216977,-0.38987562,
p, 9911,-0.55534351,0.43635237,-0.31048352,0.07415536,-0.81229365,0.43106747,-0.38577700,
p, 9922,-0.54236597,0.43774253,-0.30552557,0.07426556,-0.81433237,0.43014020,-0.38248196,
p, 9933,-0.53978348,0.42703930,-0.30093324,0.07440273,-0.81614637,0.42925614,-0.37957710,
p, 9943,-0.54071236,0.42638737,-0.29824799,0.07453767,-0.81783998,0.42839140,-0.37687790,
p, 9953,-0.52753544,0.42588595,-0.28946671,0.07465713,-0.81945598,0.42754751,-0.37429717,
p, 9963,-0.52633333,0.42396438,-0.29471964,0.07476828,-0.82104278,0.42669651,-0.37176245,
p, 9973,-0.52165818,0.42743629,-0.28581044,0.07486185,-0.82260478,0.42582482,-0.36928356,
p, 9983,-0.51621544,0.41880390,-0.27979946,0.07502098,-0.82491928,0.42447120,-0.36561394,
p, 9994,-0.51350170,0.41895854,-0.27432203,0.07515665,-0.82682729,0.42335474,-0.36255932,
u, 9997,,,,,,,,0.00000000,0.00000000
p, 10005,-0.51634097,0.41388601,-0.27023292,0.07526067,-0.82886815,0.42218035,-0.35922930,
p, 10016,-0.50414217,0.40652797,-0.26480854,0.07531724,-0.83058673,0.42120865,-0.35638255,
p, 10027,-0.50175065,0.40635085,-0.25677866,0.07536013,-0.83214414,0.42032203,-0.35378304,
p, 10037,-0.50546825,0.40973365,-0.25940129,0.07539558,-0.83363569,0.41944972,-0.35129458,
p, 10047,-0.49982733,0.41196674,-0.25030613,0.07542893,-0.83510005,0.41854429,-0.34888357,
p, 10057,-0.49371859,0.40127298,-0.24673510,0.07550649,-0.83726645,0.41711026,-0.34536052,
p, 10067,-0.49066424,0.39592612,-0.24494958,0.07554528,-0.83834958,0.41639328,-0.34359902,
p, 10077,-0.49162424,0.39206249,-0.23168957,0.07564303,-0.83997256,0.41526559,-0.34096664,
p, 10087,-0.48607701,0.39226690,-0.22637182,0.07574980,-0.84217703,0.41372460,-0.33734429,
u, 10098,,,,,,,,0.00000000,0.00000000
p, 10098,-0.48556170,0.39339906,-0.23268512,0.07581313,-0.84398472,0.41243142,-0.33438519,
p, 10109,-0.48000163,0.39354554,-0.22946359,0.07586171,-0.84558821,0.41125292,-0.33176991,
p, 10119,-0.47363576,0.38223571,-0.23224735,0.07588149,-0.84704983,0.41019440,-0.32934380,
p, 10129,-0.47393948,0.38251647,-0.22826052,0.07588470,-0.84844697,0.40918219,-0.32700133,
p, 10139,-0.47221449,0.37641603,-0.21848512,0.07590102,-0.84981310,0.40816006,-0.32472181,
p, 10149,-0.46851385,0.37557831,-0.20901215,0.07593369,-0.85151577,0.40683231,-0.32190198,
p, 10159,-0.46548098,0.37184066,-0.21993881,0.07594916,-0.85301876,0.40567568,-0.31936985,
p, 10169,-0.46136293,0.37494621,-0.20936516,0.07593403,-0.85440016,0.40462035,-0.31701368,
p, 10179,-0.45240694,0.37575132,-0.20429958,0.07588248,-0.85632241,0.40315443,-0.31367773,
p, 10190,-0.44827989,0.36650267,-0.20312482,0.07585032,-0.85792375,0.40187743,-0.31093901,
u, 10199,,,,,,,,0.00000000,0.00000000
p, 10201,-0.44729972,0.36880583,-0.19486228,0.07581516,-0.85936213,0.40069669,-0.30849466,
p, 10211,-0.44859493,0.36055800,-0.19356914,0.07578923,-0.86070430,0.39958459,-0.30619743,
p, 10221,-0.44616789,0.35753274,-0.19187734,0.07575025,-0.86198276,0.39852348,-0.30398896,
p, 10231,-0.43972060,0.35663807,-0.18318079,0.07569736,-0.86321127,0.39750099,-0.30184984,
p, 10241,-0.43440652,0.34632593,-0.18710279,0.07564814,-0.86442113,0.39648169,-0.29973447,
p, 10251,-0.54361165,0.05514386,-0.05479407,0.07609180,-0.86558592,0.39519882,-0.29795155,
p, 10261,-0.32200724,-0.01316904,-0.20497119,0.07736027,-0.86669034,0.39370191,-0.29639095,
p, 10271,-0.23405507,0.19783747,-0.25658411,0.07827449,-0.86756796,0.39225632,-0.29550332,
p, 10282,-0.45673394,0.30179960,-0.11099622,0.07909012,-0.86854780,0.39033157,-0.29495651,
p, 10293,-0.46338284,0.63426769,-0.12684058,0.07947809,-0.86949313,0.38880980,-0.29407835,
u, 10300,,,,,,,,0.00000000,0.00000000
p, 10303,-0.42511183,0.39606756,-0.34279346,0.07935999,-0.87028342,0.38795054,-0.29290867,
p, 10313,-0.42846778,0.28056094,-0.25263453,0.07922713,-0.87075305,0.38760257,-0.29201269,
p, 10323,-0.22592975,0.26565433,0.01779437,0.07917709,-0.87105060,0.38744742,-0.29134738,
p, 10333,-0.48584390,0.41058290,0.02454507,0.07934244,-0.87107182,0.38747260,-0.29120791,
p, 10343,-0.55868733,0.62532777,-0.29638988,0.07952593,-0.87107480,0.38744226,-0.29119062,
p, 10353,-0.48256022,0.40246949,-0.53968966,0.07944198,-0.87114263,0.38739097,-0.29107940,
p, 10363,-0.27094319,0.37357515,-0.07357866,0.07944191,-0.87119102,0.38740444,-0.29091710,
p, 10374,-0.43639016,0.19507310,-0.10218850,0.07979658,-0.87117553,0.38769203,-0.29048255,
p, 10385,-0.52079213,0.40020990,-0.22032185,0.08005995,-0.87113088,0.38787436,-0.29030070,
p, 10395,-0.38728815,0.41914487,-0.41096506,0.08011106,-0.87111473,0.38796484,-0.29021436,
u, 10401,,,,,,,,0.00777875,0.00000000
p, 10405,-0.31993344,0.27300322,-0.33859259,0.08004023,-0.87121350,0.38790572,-0.29001647,
p, 10415,-0.28956723,0.32983047,-0.05100253,0.08015249,-0.87124825,0.38787165,-0.28992665,
p, 10425,-0.54262602,0.17566505,-0.13372423,0.08036433,-0.87121934,0.38798833,-0.28979880,
p, 10435,-0.48627883,0.47307879,-0.39015770,0.08045647,-0.87119585,0.38807416,-0.28972897,
p, 10445,-0.44544044,0.42035440,-0.50948620,0.08041008,-0.87126374,0.38800496,-0.28963041,
p, 10455,-0.31294543,0.30185962,-0.13538122,0.08034982,-0.87143111,0.38793975,-0.28923029,
p, 10466,-0.43425897,0.31366479,-0.04564166,0.08040795,-0.87144649,0.38796777,-0.28913042,
p, 10477,-0.58456874,0.35034436,-0.12577188,0.08046509,-0.87173295,0.38829768,-0.28780198,
p, 10487,-0.54070508,0.46982703,-0.31547993,0.08039260,-0.87189376,0.38843060,-0.28715581,
p, 10498,-0.38618201,0.31111592,-0.10544810,0.08018792,-0.87207919,0.38839278,-0.28670156,
u, 10501,,,,,,,,0.01571308,-0.00777875
p, 10508,-0.23454151,0.30072245,0.15121730,0.08018065,-0.87218821,0.38836187,-0.28641456,
p, 10518,-0.47496730,0.35373801,0.08525983,0.08030955,-0.87216520,0.38839200,-0.28640819,
p, 10528,-0.44753614,0.42083415,-0.35573891,0.08032832,-0.87228566,0.38854319,-0.28583005,
p, 10538,-0.42740422,0.24959402,-0.35286486,0.08017514,-0.87245512,0.38852075,-0.28538597,
p, 10549,-0.23825350,0.29184261,0.06322211,0.08011322,-0.87258637,0.38846791,-0.28507417,
p, 10560,-0.41275924,0.31530148,0.14496860,0.08017558,-0.87252301,0.38852525,-0.28517264,
p, 10570,-0.50047755,0.26450804,-0.23232527,0.08035569,-0.87248528,0.38859543,-0.28514177,
p, 10580,-0.40412366,0.42496336,-0.35883078,0.08040295,-0.87238896,0.38873246,-0.28523636,
p, 10590,-0.39084357,0.31564635,-0.16718547,0.08021894,-0.87249851,0.38861316,-0.28511569,
p, 10600,-0.20042667,0.39102325,0.08687083,0.08023877,-0.87256271,0.38855201,-0.28499711,
u, 10601,,,,,,,,-0.20971198,-0.00015558
p, 10610,-0.37689334,0.29733354,0.03231176,0.08028813,-0.87251556,0.38857594,-0.28509495,
p, 10620,-0.34929720,0.45048562,-0.27179274,0.08028710,-0.87263477,0.38875717,-0.28448188,
p, 10630,-0.35800582,0.30346698,-0.28779000,0.08020431,-0.87274885,0.38876992,-0.28413776,
p, 10641,-0.19533744,0.22763833,0.06022945,0.08013181,-0.87284982,0.38872066,-0.28391561,
p, 10652,-0.30653864,0.22192006,0.10504301,0.08022757,-0.87290215,0.38866234,-0.28380781,
p, 10662,-0.49324277,0.33489802,-0.04741593,0.08024676,-0.87302965,0.38883582,-0.28317118,
p, 10673,-0.37872434,0.41299343,-0.33837470,0.08019935,-0.87309515,0.38898975,-0.28277114,
p, 10683,-0.28915465,0.25862837,-0.24883060,0.08001429,-0.87327194,0.38900346,-0.28225809,
p, 10693,-0.26879150,0.24235129,-0.08144655,0.07986128,-0.87338328,0.38899326,-0.28197116,
u, 10701,,,,,,,,-0.00419424,-0.01556061
p, 10703,-0.39885345,0.15870464,-0.08711000,0.07995658,-0.87351936,0.38927919,-0.28112561,
p, 10714,-0.48684126,0.85934347,-0.37829468,0.07932693,-0.87394863,0.38953808,-0.27960268,
p, 10725,-0.20312217,0.32071635,-0.36221254,0.07907238,-0.87425917,0.38948673,-0.27877581,
p, 10736,-0.16846325,0.27223563,-0.12027711,0.07878576,-0.87458706,0.38938892,-0.27796465,
p, 10746,-0.45380712,0.28570735,0.15217224,0.07872109,-0.87465060,0.38932890,-0.27786916,
p, 10756,-0.64522326,0.33102506,0.02976044,0.07875610,-0.87478995,0.38946721,-0.27722615,
p, 10767,-0.48219568,0.36953780,-0.19894883,0.07875009,-0.87484521,0.38955578,-0.27692962,
p, 10777,-0.24978009,0.12052940,0.08669807,0.07879221,-0.87501371,0.38950366,-0.27645826,
p, 10787,-0.68758076,1.10240185,1.12153506,0.07911195,-0.87515563,0.38929629,-0.27620977,
p, 10797,-0.54817426,0.63622290,0.30010927,0.07943577,-0.87515455,0.38921449,-0.27623582,
u, 10802,,,,,,,,-0.00008388,-0.00031121
p, 10807,-0.61529654,0.58505630,-0.08967620,0.07953446,-0.87505382,0.38935357,-0.27633071,
p, 10818,-0.52584136,0.39927101,-0.10688034,0.07938140,-0.87521714,0.38938272,-0.27581555,
p, 10829,-0.37740737,0.51158619,0.12552254,0.07944308,-0.87536001,0.38928625,-0.27548057,
p, 10839,-0.42832008,0.34680414,0.06138035,0.07954191,-0.87534708,0.38931680,-0.27545026,
p, 10849,-0.52640063,0.31578946,-0.18857099,0.07959320,-0.87527734,0.38940781,-0.27552852,
p, 10859,-0.41134027,0.46137679,-0.33548880,0.07957809,-0.87520820,0.38955063,-0.27555072,
p, 10869,-0.29297328,0.39157706,-0.05627131,0.07951722,-0.87529826,0.38942903,-0.27545410,
p, 10879,-0.33931959,0.30128780,0.10565341,0.07960764,-0.87530607,0.38935852,-0.27550289,
p, 10890,-0.55759925,0.34018093,-0.16718978,0.07982416,-0.87535536,0.38950753,-0.27507228,
p, 10901,-0.54063284,0.43796614,-0.28118858,0.07986242,-0.87532574,0.38967597,-0.27491692,
u, 10902,,,,,,,,-0.01555918,-0.00000622
p, 10911,-0.41931850,0.35350454,-0.37808210,0.07976928,-0.87537801,0.38970307,-0.27473915,
p, 10921,-0.32956281,0.36263484,-0.06489554,0.07959162,-0.87548578,0.38973248,-0.27440506,
p, 10931,-0.25830251,0.32615384,0.12860875,0.07968491,-0.87558579,0.38966942,-0.27414852,
p, 10942,-0.43235102,0.48881394,-0.21478650,0.07975364,-0.87551284,0.38978434,-0.27419823,
p, 10952,-0.36105007,0.41335991,-0.36701393,0.07967646,-0.87552857,0.38984129,-0.27408957,
p, 10962,-0.25527784,0.22470059,-0.17989826,0.07962580,-0.87554920,0.38987195,-0.27399474,
p, 10972,-0.14359961,0.32484418,0.08167410,0.07973937,-0.87561905,0.38978189,-0.27386659,
p, 10982,-0.36891896,0.26192465,-0.02372289,0.07995152,-0.87570047,0.38988212,-0.27340090,
p, 10992,-0.43073633,0.39027780,-0.31975329,0.07999232,-0.87571752,0.39003229,-0.27312016,
u, 11003,,,,,,,,-0.00808993,0.00777863
p, 11003,-0.44492900,0.23018071,-0.22877771,0.07994048,-0.87583280,0.39016488,-0.27257544,
p, 11014,-0.27478689,0.33797550,0.13011798,0.07991600,-0.87596583,0.39017493,-0.27214038,
p, 11024,-0.29290339,0.27838564,0.13151102,0.08005346,-0.87601137,0.39017966,-0.27194673,
p, 11034,-0.49684691,0.29792237,-0.19825968,0.08019330,-0.87593716,0.39030910,-0.27195910,
p, 11044,-0.46969879,0.45216858,-0.33750266,0.08021527,-0.87588024,0.39042199,-0.27197415,
p, 11054,-0.27552170,0.30472046,-0.05261669,0.08001517,-0.87602800,0.39040452,-0.27158165,
p, 11064,-0.20469353,0.29100922,0.13862391,0.08004551,-0.87611496,0.39034826,-0.27137297,
p, 11075,-0.44808042,0.27027571,-0.08789935,0.08025789,-0.87612683,0.39046991,-0.27109677,
p, 11086,-0.42489165,0.50162345,-0.29046303,0.08036630,-0.87610531,0.39062232,-0.27091482,
p, 11097,-0.38458022,0.26834407,-0.31622151,0.08027391,-0.87615550,0.39061743,-0.27078700,
u, 11104,,,,,,,,-0.00016180,0.00015557
p, 11107,-0.23891334,0.25834042,0.02566610,0.08024019,-0.87623739,0.39050961,-0.27068755,
p, 11117,-0.22362080,0.19455412,0.13719982,0.08036510,-0.87623179,0.39050621,-0.27067354,
p, 11128,-0.46203011,0.38665998,-0.21857050,0.08057716,-0.87621570,0.39074075,-0.27032346,
p, 11138,-0.39983067,0.44813651,-0.34096706,0.08059904,-0.87620753,0.39090300,-0.27010888,
p, 11148,-0.37177509,0.31977138,-0.27219862,0.08045746,-0.87639701,0.39091671,-0.26951522,
p, 11158,-0.38683817,0.16190748,-0.03922889,0.08055253,-0.87648904,0.39083463,-0.26930678,
p, 11168,-0.54821646,0.33284584,-0.26257253,0.08067490,-0.87658119,0.39101636,-0.26870519,
p, 11179,-0.49286586,0.44295031,-0.36199915,0.08071940,-0.87660807,0.39117187,-0.26837802,
p, 11190,-0.46306959,0.31921533,-0.36499006,0.08058837,-0.87667072,0.39119911,-0.26817325,
p, 11200,-0.31722051,0.32936168,-0.07278433,0.08044060,-0.87687695,0.39113054,-0.26764238,
u, 11204,,,,,,,,-0.03889699,-0.04666939
p, 11210,-0.24174777,0.29806554,0.22780614,0.08051960,-0.87698483,0.39105332,-0.26737833,
p, 11220,-0.42506546,0.29618090,-0.03126905,0.08065709,-0.87692720,0.39114287,-0.26739526,
p, 11230,-0.46254036,0.44797906,-0.28357887,0.08065470,-0.87687260,0.39126569,-0.26739544,
p, 11240,-0.40645635,0.37589079,-0.23651600,0.08042258,-0.87702382,0.39131516,-0.26689607,
p, 11250,-0.50262851,0.69761944,-0.37854242,0.08048894,-0.87718070,0.39129612,-0.26638764,
p, 11260,-0.38837633,0.53139639,-0.25019193,0.08025978,-0.87737644,0.39126891,-0.26585126,
p, 11271,-0.39225489,0.48023677,-0.17246687,0.07980894,-0.87775975,0.39132041,-0.26464033,
p, 11282,-0.38953260,0.40916288,-0.19278556,0.07920928,-0.87822622,0.39144218,-0.26308459,
p, 11292,-0.39591527,0.36863631,-0.16920009,0.07865387,-0.87871426,0.39159182,-0.26139081,
p, 11303,-0.37441027,0.35778007,-0.14401014,0.07796019,-0.87929094,0.39183366,-0.25928348,
u, 11304,,,,,,,,-0.00077794,-0.00093339
p, 11313,-0.37756616,0.32497770,-0.13900641,0.07737584,-0.87980294,0.39206010,-0.25737196,
p, 11323,-0.36768475,0.32317916,-0.14361514,0.07683470,-0.88028198,0.39227498,-0.25556290,
p, 11333,-0.36497182,0.31127065,-0.13108796,0.07632196,-0.88073862,0.39248195,-0.25382051,
p, 11344,-0.35782465,0.30716273,-0.13519272,0.07555249,-0.88140172,0.39277676,-0.25127244,
p, 11355,-0.34993285,0.31093001,-0.12488548,0.07491276,-0.88194323,0.39301485,-0.24918416,
p, 11366,-0.35090789,0.30567253,-0.13152692,0.07433501,-0.88242757,0.39322740,-0.24730246,
p, 11376,-0.34561235,0.30958217,-0.12421225,0.07378541,-0.88287783,0.39342213,-0.24554622,
p, 11386,-0.34743538,0.29617903,-0.12800884,0.07328079,-0.88330078,0.39361024,-0.24387094,
p, 11396,-0.34595889,0.30018914,-0.12734365,0.07278582,-0.88371360,0.39379430,-0.24222216,
u, 11404,,,,,,,,-0.00001556,-0.00001867
p, 11406,-0.33814058,0.30458981,-0.13062739,0.07216007,-0.88422084,0.39401656,-0.24018556,
p, 11416,-0.34266955,0.29434660,-0.11988676,0.07138114,-0.88486034,0.39430326,-0.23757052,
p, 11426,-0.33527520,0.29093397,-0.10980910,0.07075225,-0.88536835,0.39452910,-0.23548383,
p, 11437,-0.33677363,0.29459876,-0.11128578,0.07020313,-0.88581192,0.39472771,-0.23364362,
p, 11448,-0.33395231,0.28524646,-0.10783558,0.06971111,-0.88621438,0.39491132,-0.23195155,
p, 11458,-0.33631057,0.28982478,-0.11484613,0.06921585,-0.88660181,0.39508235,-0.23032439,
p, 11468,-0.33005866,0.27751127,-0.10881467,0.06874523,-0.88697040,0.39524639,-0.22876099,
p, 11478,-0.33042699,0.27750379,-0.11151335,0.06816448,-0.88741839,0.39544475,-0.22684422,
p, 11488,-0.32103625,0.27753058,-0.10311995,0.06763234,-0.88781232,0.39561346,-0.22516258,
p, 11498,-0.32330650,0.27248567,-0.09771781,0.06715637,-0.88817668,0.39577577,-0.22357839,
u, 11505,,,,,,,,-0.00000031,-0.00000037
p, 11508,-0.31481335,0.26759049,-0.09356716,0.06670672,-0.88852501,0.39593369,-0.22204524,
p, 11518,-0.31242836,0.27200937,-0.09249128,0.06624740,-0.88886738,0.39608458,-0.22053894,
p, 11529,-0.31911701,0.27381444,-0.09836967,0.06556556,-0.88936704,0.39630374,-0.21831679,
p, 11540,-0.31088755,0.27066576,-0.09638789,0.06489260,-0.88985455,0.39651698,-0.21613032,
p, 11551,-0.31353247,0.26840478,-0.10082914,0.06433092,-0.89025748,0.39669275,-0.21431124,
p, 11562,-0.31064349,0.27072278,-0.09871627,0.06380969,-0.89061844,0.39684597,-0.21268058,
p, 11572,-0.31276193,0.26366490,-0.09968162,0.06334698,-0.89095229,0.39699459,-0.21113998,
p, 11582,-0.30256015,0.26021227,-0.09366405,0.06289214,-0.89126968,0.39713252,-0.20967352,
p, 11592,-0.30244127,0.25673884,-0.09353918,0.06226444,-0.89172304,0.39733827,-0.20752674,
p, 11602,-0.29770499,0.25484952,-0.08333728,0.06173819,-0.89209437,0.39750433,-0.20576388,
u, 11606,,,,,,,,-0.00000001,-0.00000001
p, 11612,-0.29533687,0.25390488,-0.07823633,0.06147506,-0.89227998,0.39758736,-0.20488244,
p, 11622,-0.29582363,0.25674370,-0.07502209,0.06102350,-0.89258736,0.39772201,-0.20341170,
p, 11633,-0.29747084,0.25179255,-0.07881659,0.06038976,-0.89301896,0.39791328,-0.20131497,
p, 11644,-0.29045904,0.24604398,-0.08501682,0.05988147,-0.89336884,0.39807087,-0.19959643,
p, 11655,-0.28282565,0.25156203,-0.08095293,0.05940502,-0.89367962,0.39820468,-0.19807729,
p, 11665,-0.28656206,0.24078651,-0.08738198,0.05897191,-0.89396685,0.39833128,-0.19665295,
p, 11675,-0.28279215,0.24433276,-0.08099873,0.05856549,-0.89424109,0.39845502,-0.19527334,
p, 11685,-0.28430989,0.24557184,-0.08088175,0.05806628,-0.89457321,0.39860445,-0.19358675,
p, 11695,-0.28043771,0.24242246,-0.07685597,0.05761972,-0.89486647,0.39873567,-0.19208959,
p, 11705,-0.27727330,0.23590392,-0.07284418,0.05722177,-0.89513588,0.39886034,-0.19069076,
u, 11706,,,,,,,,-0.00000000,-0.00000000
p, 11715,-0.27081591,0.22858581,-0.07808621,0.05665722,-0.89551401,0.39903563,-0.18870170,
p, 11726,-0.26863244,0.23460846,-0.07751814,0.05617538,-0.89582187,0.39917344,-0.18708740,
p, 11737,-0.27488017,0.23120347,-0.07574637,0.05575316,-0.89609390,0.39929700,-0.18564382,
p, 11747,-0.26757467,0.23160668,-0.06704036,0.05534100,-0.89634722,0.39940798,-0.18430260,
p, 11758,-0.26109141,0.23643169,-0.07317777,0.05483494,-0.89664716,0.39953601,-0.18270916,
p, 11768,-0.26061162,0.22369222,-0.06381819,0.05441313,-0.89690524,0.39965039,-0.18131429,
p, 11778,-0.26430851,0.22386852,-0.06353293,0.05402990,-0.89714533,0.39975983,-0.17999631,
p, 11788,-0.26213625,0.22582586,-0.06513744,0.05348217,-0.89748263,0.39991301,-0.17812350,
p, 11798,-0.26160705,0.21654299,-0.06378058,0.05304378,-0.89775527,0.40003872,-0.17659298,
u, 11806,,,,,,,,-0.00000000,-0.00000000
p, 11809,-0.25579590,0.21551789,-0.06850375,0.05264793,-0.89799762,0.40014970,-0.17522448,
p, 11820,-0.25379059,0.21875137,-0.06581468,0.05217975,-0.89827204,0.40027171,-0.17367187,
p, 11831,-0.24702011,0.21450874,-0.05623040,0.05178428,-0.89850825,0.40037924,-0.17231682,
p, 11842,-0.24471062,0.21065556,-0.05979244,0.05141258,-0.89872670,0.40047792,-0.17105661,
p, 11852,-0.24633297,0.21432132,-0.05796476,0.05105384,-0.89893562,0.40057218,-0.16984251,
p, 11862,-0.24286406,0.20468721,-0.05785964,0.05071056,-0.89913619,0.40066352,-0.16866519,
p, 11872,-0.24659225,0.20597367,-0.06056129,0.05037563,-0.89933318,0.40075442,-0.16749570,
p, 11882,-0.24580894,0.20566323,-0.05964619,0.04987394,-0.89961660,0.40088195,-0.16580525,
p, 11892,-0.23786420,0.20321156,-0.05861643,0.04936606,-0.89989293,0.40100297,-0.16415495,
p, 11902,-0.23524985,0.20443475,-0.05575170,0.04894517,-0.90012193,0.40110397,-0.16277462,
u, 11907,,,,,,,,-0.00000000,-0.00000000
p, 11912,-0.23992412,0.19823331,-0.06003375,0.04857725,-0.90032578,0.40119606,-0.16152778,
p, 11923,-0.23074088,0.19298109,-0.05180642,0.04823057,-0.90051234,0.40127864,-0.16038470,
p, 11934,-0.23045222,0.19526069,-0.05317067,0.04789377,-0.90069282,0.40135887,-0.15926859,
p, 11944,-0.23165831,0.19497380,-0.05201411,0.04757460,-0.90086865,0.40143949,-0.15816361,
p, 11954,-0.22662322,0.19583742,-0.05206143,0.04724174,-0.90103948,0.40151340,-0.15709969,
p, 11965,-0.22373948,0.19125673,-0.04723281,0.04676916,-0.90128708,0.40162390,-0.15552610,
p, 11975,-0.22043602,0.19106446,-0.04586372,0.04645263,-0.90145117,0.40169662,-0.15448125,
p, 11985,-0.22212598,0.18813783,-0.04620914,0.04597442,-0.90169168,0.40180141,-0.15293697,
p, 11995,-0.22022437,0.18185273,-0.05263033,0.04558335,-0.90189052,0.40188950,-0.15164551,
p, 12006,-0.21362782,0.17829056,-0.05014176,0.04523357,-0.90206635,0.40196705,-0.15049642,
u, 12007,,,,,,,,-0.00000000,-0.00000000
p, 12017,-0.21151972,0.18509254,-0.04709695,0.04489211,-0.90223205,0.40203822,-0.14941296,
p, 12027,-0.20827603,0.17858295,-0.04502522,0.04457539,-0.90238595,0.40210494,-0.14839642,
p, 12038,-0.20793593,0.17751780,-0.04399698,0.04419634,-0.90257400,0.40218884,-0.14713198,
p, 12048,-0.20508033,0.17197271,-0.04635152,0.04386812,-0.90273768,0.40226266,-0.14602086,
p, 12058,-0.19464985,0.16883394,-0.03967051,0.04356338,-0.90288639,0.40232885,-0.14500795,
p, 12068,-0.19676645,0.16544114,-0.04067876,0.04327724,-0.90302801,0.40239313,-0.14403096,
p, 12079,-0.20073918,0.16422540,-0.04352511,0.04286598,-0.90323383,0.40248853,-0.14258558,
p, 12090,-0.19787325,0.16788235,-0.04465837,0.04251692,-0.90340269,0.40256497,-0.14139992,
p, 12101,-0.19745499,0.16955824,-0.04567513,0.04218474,-0.90355396,0.40263003,-0.14034504,
u, 12107,,,,,,,,-0.00000000,-0.00000000
p, 12111,-0.19627693,0.17125830,-0.03418247,0.04188669,-0.90369439,0.40269285,-0.13934745,
p, 12121,-0.19545902,0.16664569,-0.03988024,0.04161579,-0.90382683,0.40275449,-0.13838914,
p, 12131,-0.18851167,0.16787180,-0.03806756,0.04133272,-0.90395635,0.40281171,-0.13745923,
p, 12141,-0.19533005,0.16800420,-0.04466855,0.04091629,-0.90414697,0.40289682,-0.13606997,
p, 12151,-0.19379540,0.16597232,-0.03707426,0.04051261,-0.90433264,0.40298074,-0.13470006,
p, 12161,-0.18552837,0.16314058,-0.03375778,0.04017146,-0.90448451,0.40304786,-0.13357836,
p, 12172,-0.19000082,0.16552415,-0.02672081,0.03986306,-0.90461922,0.40310675,-0.13257906,
p, 12183,-0.18669811,0.16419061,-0.02954998,0.03957482,-0.90474367,0.40316093,-0.13164951,
p, 12193,-0.18195684,0.15832058,-0.02534933,0.03930099,-0.90486133,0.40321228,-0.13076359,
p, 12203,-0.18427065,0.15871961,-0.03032908,0.03904145,-0.90497673,0.40326458,-0.12987921,
u, 12207,,,,,,,,-0.00000000,-0.00000000
p, 12213,-0.18429078,0.15809515,-0.02720373,0.03877299,-0.90509045,0.40331417,-0.12901084,
p, 12223,-0.17950958,0.15600528,-0.02565631,0.03851281,-0.90520096,0.40336281,-0.12815911,
p, 12233,-0.17470810,0.15193146,-0.02820138,0.03819018,-0.90533566,0.40342170,-0.12711266,
p, 12243,-0.16680656,0.15470108,-0.02924504,0.03789461,-0.90545523,0.40347266,-0.12618478,
p, 12253,-0.17522305,0.14377205,-0.02492220,0.03750944,-0.90561861,0.40354630,-0.12488180,
p, 12264,-0.17174086,0.14144322,-0.02840654,0.03719963,-0.90574920,0.40360516,-0.12383382,
p, 12275,-0.17131202,0.13975237,-0.02627297,0.03693161,-0.90586376,0.40365785,-0.12290225,
p, 12285,-0.16198048,0.14131021,-0.02451191,0.03667117,-0.90596843,0.40370363,-0.12205675,
p, 12295,-0.16744654,0.13813710,-0.02781229,0.03641709,-0.90606934,0.40374756,-0.12123676,
p, 12305,-0.16639540,0.13872492,-0.02242818,0.03617828,-0.90616632,0.40379095,-0.12043681,
u, 12308,,,,,,,,-0.00000000,-0.00000000
p, 12316,-0.16931067,0.13846952,-0.03349192,0.03582224,-0.90630794,0.40385377,-0.11925800,
p, 12327,-0.16648060,0.14149275,-0.02709905,0.03553695,-0.90642482,0.40390736,-0.11826986,
p, 12338,-0.16424158,0.13127799,-0.02395602,0.03528272,-0.90652692,0.40395361,-0.11740377,
p, 12349,-0.15732373,0.13274714,-0.02469621,0.03493568,-0.90666449,0.40401593,-0.11622259,
p, 12359,-0.15918249,0.13542722,-0.02447884,0.03470512,-0.90675527,0.40405697,-0.11544058,
p, 12369,-0.15685412,0.13820159,-0.02540776,0.03446642,-0.90684432,0.40409553,-0.11467630,
p, 12379,-0.15261529,0.13105911,-0.02380465,0.03413228,-0.90697086,0.40415174,-0.11356951,
p, 12389,-0.15286100,0.13285896,-0.02819871,0.03385323,-0.90707529,0.40419787,-0.11265166,
p, 12400,-0.15096968,0.13350712,-0.02777123,0.03359807,-0.90716845,0.40423834,-0.11183105,
u, 12409,,,,,,,,-0.00000000,-0.00000000
p, 12411,-0.15482292,0.12795657,-0.02689373,0.03335482,-0.90725631,0.40427637,-0.11105184,
p, 12422,-0.15321712,0.12882814,-0.01739889,0.03306124,-0.90736139,0.40432191,-0.11011022,
p, 12432,-0.15064421,0.13246827,-0.01004985,0.03281388,-0.90745199,0.40436220,-0.10928751,
p, 12442,-0.14686294,0.12992433,-0.01231100,0.03258964,-0.90753436,0.40439922,-0.10853163,
p, 12452,-0.14880225,0.13183381,-0.01986552,0.03236958,-0.90761459,0.40443522,-0.10779068,
p, 12462,-0.15045856,0.12745559,-0.02616811,0.03216108,-0.90769100,0.40446997,-0.10707712,
p, 12472,-0.14510691,0.12509865,-0.02680934,0.03185879,-0.90780050,0.40451974,-0.10604368,
p, 12483,-0.14409429,0.12688038,-0.02600080,0.03160327,-0.90789121,0.40456045,-0.10518502,
p, 12494,-0.13746157,0.12341486,-0.02300254,0.03137207,-0.90797138,0.40459594,-0.10442370,
p, 12504,-0.13851686,0.12242978,-0.02745433,0.03114164,-0.90804708,0.40462786,-0.10370925,
u, 12510,,,,,,,,-0.00000000,-0.00000000
p, 12514,-0.14241669,0.12202117,-0.02343176,0.03095112,-0.90811747,0.40466112,-0.10301879,
p, 12525,-0.14020859,0.11757492,-0.02261065,0.03067689,-0.90821600,0.40470704,-0.10204540,
p, 12535,-0.14565820,0.11611473,-0.01870584,0.03049925,-0.90828192,0.40473875,-0.10138525,
p, 12545,-0.14517102,0.12395245,-0.01733327,0.03030185,-0.90834963,0.40476945,-0.10071392,
p, 12555,-0.13687842,0.12157705,-0.01553309,0.03010067,-0.90841514,0.40479794,-0.10006726,
p, 12566,-0.13106892,0.11540736,-0.01827985,0.02980864,-0.90850854,0.40483814,-0.09913801,
p, 12577,-0.13278757,0.11290998,-0.01627341,0.02952290,-0.90860176,0.40487942,-0.09819517,
p, 12588,-0.12266820,0.11684927,-0.01318736,0.02927830,-0.90867901,0.40491286,-0.09741288,
p, 12599,-0.13223407,0.11740749,-0.01931951,0.02906189,-0.90874910,0.40494412,-0.09669226,
p, 12609,-0.12824319,0.11312421,-0.01273440,0.02886125,-0.90881336,0.40497264,-0.09602781,
u, 12610,,,,,,,,-0.00000000,-0.00000000
p, 12619,-0.12674367,0.10934226,-0.01541566,0.02866495,-0.90887493,0.40499961,-0.09538864,
p, 12629,-0.12968653,0.10906108,-0.00966859,0.02837677,-0.90896380,0.40503839,-0.09445614,
p, 12639,-0.13044080,0.10852377,-0.01717102,0.02814725,-0.90903592,0.40507054,-0.09369069,
p, 12650,-0.13522010,0.10664531,-0.01640564,0.02794994,-0.90909958,0.40509987,-0.09300323,
p, 12660,-0.12983540,0.10271536,-0.01749542,0.02767883,-0.90918565,0.40513933,-0.09206448,
p, 12671,-0.13153757,0.09789699,-0.01627792,0.02751418,-0.90924144,0.40516639,-0.09144428,
p, 12682,-0.11996800,0.11165449,-0.01432640,0.02732682,-0.90929735,0.40519089,-0.09083506,
p, 12692,-0.12834337,0.10716544,-0.01152721,0.02715502,-0.90935183,0.40521634,-0.09022574,
p, 12702,-0.12014855,0.10429531,-0.00952490,0.02697959,-0.90940416,0.40523958,-0.08964545,
u, 12710,,,,,,,,-0.00000000,-0.00000000
p, 12712,-0.11659283,0.10080793,-0.01770190,0.02682254,-0.90945339,0.40526262,-0.08908710,
p, 12722,-0.11364767,0.09798087,-0.01142969,0.02667018,-0.90950179,0.40528560,-0.08853328,
p, 12732,-0.11468516,0.10090847,-0.00764508,0.02648192,-0.90956175,0.40531436,-0.08783853,
p, 12742,-0.12259679,0.10488996,-0.00662253,0.02628449,-0.90961719,0.40533832,-0.08721054,
p, 12752,-0.11623004,0.10540061,-0.01055156,0.02600376,-0.90969139,0.40536869,-0.08637334,
p, 12763,-0.11895181,0.09750774,-0.01241689,0.02579899,-0.90975082,0.40539554,-0.08568039,
p, 12774,-0.11236287,0.09710898,-0.01325801,0.02561243,-0.90980232,0.40541783,-0.08508356,
p, 12784,-0.11670542,0.09414775,-0.01602079,0.02545695,-0.90984905,0.40543985,-0.08452398,
p, 12794,-0.10943913,0.09572652,-0.00583602,0.02529415,-0.90989447,0.40546006,-0.08398570,
p, 12804,-0.10712588,0.08861186,-0.01188255,0.02513718,-0.90993798,0.40547934,-0.08346757,
u, 12811,,,,,,,,-0.00000000,-0.00000000
p, 12814,-0.10610658,0.08993734,-0.00793255,0.02495642,-0.90999031,0.40550369,-0.08283011,
p, 12824,-0.10420838,0.09244639,-0.01611990,0.02478844,-0.91003782,0.40552548,-0.08225010,
p, 12834,-0.11042328,0.09480718,-0.01670405,0.02462300,-0.91008282,0.40554550,-0.08170180,
p, 12844,-0.10103378,0.08922030,-0.01706479,0.02439417,-0.91014504,0.40557355,-0.08093233,
p, 12855,-0.11083488,0.09655107,-0.01666533,0.02419026,-0.91019768,0.40559620,-0.08028552,
p, 12866,-0.10364284,0.09279305,-0.01516097,0.02400629,-0.91024363,0.40561545,-0.07972139,
p, 12876,-0.10331984,0.08788517,-0.01481315,0.02383617,-0.91028655,0.40563375,-0.07918821,
p, 12886,-0.10324989,0.08367647,-0.00918423,0.02369693,-0.91032600,0.40565255,-0.07867873,
p, 12896,-0.11139362,0.08354051,-0.01502912,0.02353422,-0.91037428,0.40567654,-0.07804222,
p, 12906,-0.09997781,0.08776787,-0.01299247,0.02336970,-0.91041696,0.40569568,-0.07749301,
u, 12912,,,,,,,,-0.00000000,-0.00000000
p, 12916,-0.10097615,0.08834042,-0.00921230,0.02321440,-0.91045654,0.40571326,-0.07698078,
p, 12926,-0.10147532,0.09192259,-0.00863447,0.02300678,-0.91051108,0.40573835,-0.07626110,
p, 12936,-0.10016088,0.08703032,-0.00973411,0.02281634,-0.91055632,0.40575734,-0.07567569,
p, 12947,-0.10032763,0.07720657,-0.01117656,0.02266707,-0.91059613,0.40577608,-0.07513979,
p, 12958,-0.09493311,0.07932136,-0.00865530,0.02252712,-0.91063249,0.40579301,-0.07464841,
p, 12968,-0.09430341,0.12116550,-0.05759608,0.02231754,-0.91067368,0.40580702,-0.07413121,
p, 12978,-0.11759390,0.38312304,-0.00078290,0.02157282,-0.91072786,0.40587974,-0.07327592,
p, 12988,-0.15685755,0.73683435,-0.04503867,0.02092849,-0.91069865,0.40609670,-0.07262005,
p, 12998,0.21097705,-0.38002643,0.02145649,0.02062517,-0.91082454,0.40589240,-0.07227334,
p, 13008,0.17132257,-0.37781841,0.18946207,0.02036998,-0.91090572,0.40574515,-0.07215312,
u, 13012,,,,,,,,-0.00000000,-0.00000000
p, 13018,0.08604275,-0.16353384,0.32053059,0.02032047,-0.91091347,0.40570870,-0.07227613,
p, 13028,-0.28623277,0.04055516,0.03983530,0.02022431,-0.91079879,0.40593451,-0.07248077,
p, 13039,-0.10798302,0.17111072,-0.15510066,0.02018081,-0.91084301,0.40588129,-0.07223564,
p, 13050,-0.02886029,-0.04686804,0.13629398,0.02005487,-0.91094828,0.40563673,-0.07231629,
p, 13061,-0.06067953,0.08050885,0.32983524,0.02014892,-0.91099358,0.40552539,-0.07234466,
p, 13072,-0.16251902,-0.01352518,0.03495851,0.02024301,-0.91091228,0.40567160,-0.07252264,
p, 13082,-0.25445440,0.06153575,-0.28701752,0.02017492,-0.91085541,0.40579557,-0.07256261,
p, 13092,-0.06667270,0.22406621,-0.17331681,0.02006043,-0.91088438,0.40575051,-0.07248288,
p, 13102,-0.03106279,0.02126620,0.18333824,0.02008292,-0.91098046,0.40554297,-0.07243061,
u, 13112,,,,,,,,-0.00000000,-0.00000000
p, 13112,-0.01325784,-0.08013381,0.36166576,0.02009416,-0.91102850,0.40543920,-0.07240447,
p, 13122,-0.14855854,-0.02914924,0.01826574,0.02009219,-0.91095018,0.40564829,-0.07221787,
p, 13132,0.03624014,0.16147366,0.01290179,0.01953571,-0.91099453,0.40561402,-0.07200093,
p, 13143,0.12379481,-0.11824541,0.20822549,0.01926590,-0.91110051,0.40541303,-0.07186527,
p, 13154,0.01049817,-0.05982461,0.28534138,0.01923993,-0.91112280,0.40535897,-0.07189580,
p, 13164,-0.18807977,0.05475109,0.10292917,0.01927063,-0.91107053,0.40545923,-0.07198504,
p, 13174,-0.40943143,0.17363104,-0.24244258,0.01914980,-0.91099000,0.40562427,-0.07210641,
p, 13184,-0.22420882,0.18176334,-0.20464872,0.01896634,-0.91099799,0.40561527,-0.07210481,
p, 13194,-0.03471946,-0.06793944,0.08062852,0.01872185,-0.91109258,0.40542376,-0.07205002,
p, 13204,-0.10888195,0.02257172,0.22911125,0.01872661,-0.91111791,0.40536413,-0.07206471,
u, 13212,,,,,,,,0.16335376,-0.00000000
p, 13214,-0.25013494,0.15959366,0.03939083,0.01878297,-0.91105318,0.40548369,-0.07219517,
p, 13224,-0.09416080,0.22268012,-0.04149233,0.01857692,-0.91107011,0.40546644,-0.07213137,
p, 13235,0.14097655,-0.02136563,0.24296385,0.01827799,-0.91111660,0.40534276,-0.07231502,
p, 13246,0.07243377,-0.04577803,0.27728179,0.01825503,-0.91114700,0.40526575,-0.07237020,
p, 13257,-0.04252610,0.10369027,0.14408828,0.01816916,-0.91110462,0.40537664,-0.07230431,
p, 13268,-0.28178400,0.30946690,-0.14906335,0.01795376,-0.91106641,0.40547740,-0.07227419,
p, 13278,0.03458408,0.22113207,-0.07152569,0.01749433,-0.91108817,0.40542853,-0.07238548,
p, 13288,0.17002489,-0.03649817,0.14403147,0.01727669,-0.91115248,0.40530342,-0.07232942,
p, 13298,-0.02910041,-0.03343158,-0.02338985,0.01740180,-0.91111517,0.40536752,-0.07241072,
p, 13308,-0.20707798,0.05407736,-0.25823879,0.01730078,-0.91103840,0.40552038,-0.07254513,
u, 13312,,,,,,,,0.00326707,-0.00000000
p, 13319,-0.00743914,0.10781108,-0.18495893,0.01714137,-0.91104436,0.40551633,-0.07253138,
p, 13330,0.15944266,-0.00011057,0.05089211,0.01689091,-0.91112649,0.40532792,-0.07261090,
p, 13340,-0.03814518,-0.10065648,0.26204884,0.01689557,-0.91117561,0.40519762,-0.07272078,
p, 13351,-0.25659090,0.06954481,-0.04866308,0.01700254,-0.91113603,0.40526003,-0.07284415,
p, 13361,-0.28477433,0.10456610,-0.29801318,0.01686933,-0.91105950,0.40541524,-0.07296895,
p, 13371,-0.03724648,0.19010806,-0.17117761,0.01668877,-0.91107821,0.40539324,-0.07289836,
p, 13381,-0.12271107,0.02163637,0.17680895,0.01670685,-0.91114497,0.40519309,-0.07317111,
p, 13392,-0.26330560,0.11230439,0.07649499,0.01679830,-0.91114235,0.40523970,-0.07292518,
p, 13403,-0.33234403,0.18711075,-0.22246417,0.01675737,-0.91107631,0.40539747,-0.07288348,
u, 13413,,,,,,,,0.14008285,-0.01555750
p, 13414,-0.13290785,0.29156870,-0.25911266,0.01660370,-0.91105998,0.40546203,-0.07276356,
p, 13424,0.01960564,-0.00174525,-0.05121008,0.01647717,-0.91111159,0.40530089,-0.07304215,
p, 13435,-0.07667637,0.07685564,0.09421460,0.01660925,-0.91110545,0.40527469,-0.07323440,
p, 13445,-0.17590380,0.09988260,0.05054053,0.01668634,-0.91109896,0.40530962,-0.07310441,
p, 13455,-0.73129296,0.14538503,-0.72041148,0.01596759,-0.91106021,0.40550429,-0.07266223,
p, 13465,-0.05747998,-0.04905736,0.13810053,0.01524777,-0.91119027,0.40531957,-0.07221219,
p, 13476,-0.07570654,-0.08364886,0.40693325,0.01507584,-0.91125286,0.40521961,-0.07202296,
p, 13487,-0.19385913,0.33007804,0.02084181,0.01506069,-0.91127461,0.40519160,-0.07191093,
p, 13497,-0.04266168,0.20112605,0.01504432,0.01493620,-0.91114986,0.40547618,-0.07191423,
p, 13508,-0.23332882,0.55049133,0.10082965,0.01485731,-0.91119790,0.40540692,-0.07171203,
u, 13514,,,,,,,,0.00280166,-0.00808990
p, 13518,-0.11179686,-0.00917053,-0.40071127,0.01485007,-0.91124684,0.40532032,-0.07158170,
p, 13528,0.13145661,-0.03031158,0.06567372,0.01497351,-0.91129446,0.40529150,-0.07111056,
p, 13538,-0.08978164,0.24892044,0.30436701,0.01512619,-0.91118920,0.40549889,-0.07124522,
p, 13549,-0.01149696,0.32335854,-0.01911166,0.01512535,-0.91111517,0.40567642,-0.07118230,
p, 13560,0.10300854,0.16476917,0.04762648,0.01507477,-0.91117686,0.40552047,-0.07129207,
p, 13571,-0.04390131,0.02810907,0.18670082,0.01504196,-0.91120148,0.40545171,-0.07137538,
p, 13581,-0.09991544,-0.08439517,0.26083851,0.01510678,-0.91115570,0.40552396,-0.07153594,
p, 13591,-0.24018905,0.04853880,-0.03463507,0.01507376,-0.91105473,0.40572137,-0.07170833,
p, 13601,-0.00633262,0.14217407,-0.02973056,0.01461214,-0.91108865,0.40566304,-0.07170185,
p, 13612,0.02441395,-0.04313263,0.18828261,0.01425218,-0.91113973,0.40554890,-0.07177107,
u, 13615,,,,,,,,-0.01550147,0.00761695
p, 13623,-0.07131964,0.06974991,0.36586982,0.01416163,-0.91114867,0.40551662,-0.07185870,
p, 13633,-0.15860751,0.10049538,0.08988681,0.01416988,-0.91109967,0.40560192,-0.07199686,
p, 13644,-0.03364946,0.21063282,-0.08784620,0.01400086,-0.91110992,0.40560105,-0.07190572,
p, 13654,0.09802818,0.14967370,-0.00949164,0.01370519,-0.91114283,0.40552557,-0.07197065,
p, 13664,0.02995586,-0.08905780,0.14900173,0.01359831,-0.91116989,0.40542385,-0.07222103,
p, 13674,-0.00508738,0.05271536,0.21971875,0.01365261,-0.91114283,0.40547210,-0.07228158,
p, 13684,-0.17359471,0.08002284,-0.21741113,0.01372530,-0.91110551,0.40565178,-0.07172592,
p, 13695,-0.00011981,0.14173414,-0.15886883,0.01362151,-0.91112405,0.40566659,-0.07142641,
p, 13706,0.05595511,-0.02262353,0.01325510,0.01352988,-0.91117990,0.40558422,-0.07119957,
u, 13716,,,,,,,,0.00746872,0.00015234
p, 13717,-0.03179875,0.08161426,0.19521855,0.01363690,-0.91115558,0.40563560,-0.07119858,
p, 13727,-0.21150179,-0.04657233,-0.07314420,0.01365652,-0.91109681,0.40578407,-0.07110085,
p, 13737,-0.20642075,0.15099210,-0.38866866,0.01356476,-0.91106796,0.40588844,-0.07089208,
p, 13747,0.04737099,0.11553511,-0.25461417,0.01338283,-0.91114163,0.40578520,-0.07056949,
p, 13757,-0.10669323,0.10239951,0.12612614,0.01340044,-0.91122282,0.40562770,-0.07042351,
p, 13767,-0.15343665,0.11855968,0.05675356,0.01346190,-0.91121912,0.40566611,-0.07023831,
p, 13778,-0.28570271,0.27116337,-0.19841459,0.01343245,-0.91116929,0.40577525,-0.07026052,
p, 13789,-0.05408335,0.19947787,-0.28982770,0.01332642,-0.91119957,0.40573055,-0.07014547,
p, 13799,0.08554530,-0.00888839,-0.16333884,0.01317511,-0.91130328,0.40555704,-0.06982897,
p, 13809,-0.01734698,-0.01265342,0.21287861,0.01311879,-0.91136175,0.40544456,-0.06972963,
u, 13817,,,,,,,,0.07793688,0.02333930
p, 13819,-0.18308908,-0.01058391,0.03032847,0.01331041,-0.91129541,0.40557334,-0.06981124,
p, 13829,-0.27588597,0.11798380,-0.28165737,0.01329968,-0.91123897,0.40568614,-0.06989504,
p, 13839,0.02512769,0.16896200,-0.24203260,0.01318414,-0.91125810,0.40567219,-0.06974889,
p, 13849,-0.05374322,0.20251536,0.08255120,0.01329735,-0.91127133,0.40555632,-0.07022433,
p, 13859,-0.11486141,0.16506231,0.11906491,0.01340150,-0.91121507,0.40561455,-0.07059768,
p, 13870,-0.27581450,0.06049746,-0.21937531,0.01350775,-0.91125858,0.40547615,-0.07081102,
p, 13881,-0.24019454,0.12969026,-0.35952744,0.01339216,-0.91137922,0.40519401,-0.07089533,
p, 13892,-0.00681602,-0.04535384,0.03725441,0.01320275,-0.91150957,0.40493369,-0.07074178,
p, 13902,-0.04530102,0.01575997,0.32378009,0.01321846,-0.91156495,0.40482265,-0.07066143,
p, 13912,-0.15959814,0.07451512,0.15604593,0.01335718,-0.91156018,0.40486354,-0.07046267,
u, 13917,,,,,,,,0.00155874,0.00046679
p, 13922,-0.22300281,0.08126391,-0.08288097,0.01343421,-0.91156137,0.40486079,-0.07044873,
p, 13932,-0.01593561,0.10582513,-0.14469671,0.01334199,-0.91160941,0.40476826,-0.07037675,
p, 13942,0.01524081,-0.01443210,0.13147855,0.01325074,-0.91168249,0.40458524,-0.07049967,
p, 13953,-0.19010298,0.42136520,0.34335768,0.01232238,-0.91179240,0.40451682,-0.06962213,
p, 13964,-0.19524071,0.24191734,0.12777930,0.01209976,-0.91187000,0.40444088,-0.06908779,
p, 13974,-0.33739698,-0.12000813,-0.44484600,0.01202342,-0.91198730,0.40422907,-0.06879534,
p, 13984,-0.32482642,-0.17168313,-0.44180626,0.01184574,-0.91199112,0.40427494,-0.06850669,
p, 13994,-0.17089710,-0.19498006,-0.06260082,0.01167861,-0.91200560,0.40427232,-0.06835919,
p, 14004,-0.10663538,-0.07866831,-0.01926123,0.01171980,-0.91202283,0.40423435,-0.06834747,
p, 14014,-0.11263623,-0.00268254,-0.06023639,0.01177413,-0.91205120,0.40423137,-0.06797542,
u, 14017,,,,,,,,0.00003117,0.00000934
p, 14024,-0.10545905,0.04335935,-0.06405374,0.01176857,-0.91208041,0.40423724,-0.06754842,
p, 14035,-0.10334293,0.04961089,-0.04118977,0.01172141,-0.91211569,0.40426332,-0.06691919,
p, 14046,-0.09294648,0.05468978,-0.02286845,0.01164961,-0.91214585,0.40428084,-0.06641318,
p, 14057,-0.10101578,0.05846519,-0.02536550,0.01158890,-0.91217470,0.40429682,-0.06592906,
p, 14067,-0.09667335,0.05136547,-0.01045497,0.01153457,-0.91220045,0.40431052,-0.06549652,
p, 14077,-0.09271687,0.05880193,-0.01539747,0.01146072,-0.91222584,0.40432209,-0.06508334,
p, 14088,-0.09251627,0.05722537,-0.01214667,0.01136936,-0.91226172,0.40433913,-0.06448719,
p, 14098,-0.09801595,0.05540712,-0.01020084,0.01128736,-0.91229671,0.40435630,-0.06389549,
p, 14108,-0.09797343,0.05599336,-0.00917452,0.01121894,-0.91232598,0.40437067,-0.06339706,
u, 14117,,,,,,,,0.00000062,0.00000019
p, 14119,-0.08811025,0.06143631,-0.01081284,0.01114854,-0.91235214,0.40438285,-0.06295431,
p, 14130,-0.08674922,0.05883247,-0.00523095,0.01109193,-0.91237617,0.40439469,-0.06253920,
p, 14140,-0.08745725,0.05537907,-0.00385906,0.01103724,-0.91239887,0.40440580,-0.06214502,
p, 14150,-0.08189086,0.05272920,-0.00068594,0.01098376,-0.91242063,0.40441638,-0.06176623,
p, 14160,-0.08998717,0.04901627,-0.00222743,0.01094183,-0.91244233,0.40442786,-0.06137642,
p, 14170,-0.08176727,0.05816140,-0.00587446,0.01087670,-0.91246420,0.40443772,-0.06099668,
p, 14180,-0.08403549,0.05054218,-0.00299826,0.01083310,-0.91248864,0.40445098,-0.06054880,
p, 14190,-0.08526878,0.04847971,-0.01025768,0.01073196,-0.91252279,0.40446663,-0.05994276,
p, 14200,-0.08825054,0.05310185,-0.01066778,0.01065265,-0.91255033,0.40447941,-0.05944958,
p, 14211,-0.08455344,0.04182497,-0.01204776,0.01059944,-0.91257304,0.40449089,-0.05903177,
u, 14217,,,,,,,,0.00000001,0.00000000
p, 14222,-0.08020244,0.04913362,-0.00780916,0.01053012,-0.91259515,0.40450084,-0.05863332,
p, 14232,-0.08139150,0.04917923,-0.00638413,0.01046567,-0.91261590,0.40451026,-0.05825614,
p, 14242,-0.07144984,0.04875954,-0.00123131,0.01040027,-0.91263556,0.40451887,-0.05789917,
p, 14252,-0.07207136,0.04373554,0.00064319,0.01033995,-0.91265392,0.40452701,-0.05756339,
p, 14263,-0.08009543,0.04768564,-0.00321844,0.01025880,-0.91268146,0.40453991,-0.05704755,
p, 14273,-0.08065899,0.04774571,-0.01121463,0.01017907,-0.91270435,0.40454984,-0.05662387,
p, 14283,-0.07139639,0.05174303,-0.00858278,0.01011127,-0.91272432,0.40455866,-0.05625008,
p, 14293,-0.07476832,0.05260491,-0.01235566,0.01006361,-0.91274267,0.40456781,-0.05589411,
p, 14303,-0.07202924,0.05186093,-0.00224106,0.01000341,-0.91276073,0.40457591,-0.05555088,
p, 14313,-0.07133871,0.05403715,-0.00223442,0.00991041,-0.91278672,0.40458727,-0.05505373,
u, 14317,,,,,,,,0.00000000,0.00000000
p, 14324,-0.07097057,0.05324844,-0.00464199,0.00983868,-0.91280782,0.40459669,-0.05464692,
p, 14335,-0.07076360,0.04733802,-0.00312208,0.00979284,-0.91282564,0.40460569,-0.05429027,
p, 14345,-0.07306338,0.03644062,-0.00428473,0.00976854,-0.91284156,0.40461487,-0.05395728,
p, 14355,-0.07003999,0.03863657,-0.00360721,0.00973363,-0.91285729,0.40462321,-0.05363424,
p, 14365,-0.07752335,0.04322118,-0.01422426,0.00969132,-0.91287333,0.40463132,-0.05330717,
p, 14375,-0.06756264,0.04031023,-0.01043092,0.00963049,-0.91289598,0.40464276,-0.05284027,
p, 14385,-0.06503132,0.03554361,-0.00923615,0.00958248,-0.91291380,0.40465176,-0.05247141,
p, 14395,-0.06376566,0.03316029,-0.00863877,0.00955847,-0.91292268,0.40465626,-0.05228699,
p, 14405,-0.06253774,0.03305201,-0.00338097,0.00949360,-0.91294402,0.40466666,-0.05184264,
p, 14416,-0.06068781,0.03408124,-0.01024303,0.00945223,-0.91296124,0.40467578,-0.05147451,
u, 14417,,,,,,,,0.00000000,0.00000000
p, 14427,-0.06218900,0.03445090,-0.00338964,0.00941509,-0.91297674,0.40468401,-0.05114105,
p, 14437,-0.06317610,0.03302593,-0.01287189,0.00938098,-0.91299117,0.40469170,-0.05082841,
p, 14447,-0.05493400,0.03264150,-0.00855691,0.00933114,-0.91300440,0.40469766,-0.05055221,
p, 14457,-0.05767177,0.03302149,-0.01125935,0.00927743,-0.91301739,0.40470320,-0.05028305,
p, 14467,-0.06561720,0.03510358,-0.01206126,0.00921107,-0.91303742,0.40471280,-0.04985117,
p, 14477,-0.06080085,0.03961600,0.00172847,0.00914174,-0.91305465,0.40472034,-0.04948542,
p, 14487,-0.06139866,0.04361171,-0.00427035,0.00909411,-0.91307318,0.40473011,-0.04907017,
p, 14497,-0.06170519,0.04081068,0.00252639,0.00904374,-0.91308892,0.40473786,-0.04872153,
p, 14508,-0.05964593,0.04192023,-0.00820489,0.00899213,-0.91310382,0.40474498,-0.04839224,
u, 14518,,,,,,,,0.00000000,0.00000000
p, 14519,-0.06176724,0.03671481,-0.00084469,0.00895230,-0.91311777,0.40475214,-0.04807619,
p, 14529,-0.05943281,0.03617204,-0.00666319,0.00891511,-0.91313040,0.40475857,-0.04778878,
p, 14539,-0.06437674,0.03623635,-0.00758880,0.00887322,-0.91314280,0.40476465,-0.04750620,
p, 14549,-0.05881496,0.03540638,-0.00754043,0.00883736,-0.91315448,0.40477061,-0.04723646,
p, 14559,-0.06044386,0.03518976,-0.00624214,0.00883332,-0.91361767,0.40377164,-0.04681526,
p, 14569,-0.06125830,0.03508145,-0.00559299,0.00883130,-0.91384923,0.40327215,-0.04660466,
p, 14579,-0.06634998,0.03210524,-0.00766405,0.00891306,-0.91485226,0.40102598,-0.04623148,
p, 14589,-0.06159448,0.02902259,-0.00672357,0.00893740,-0.91535914,0.39990568,-0.04591516,
p, 14599,-0.05997968,0.02272052,-0.00208004,0.00903828,-0.91650438,0.39729899,-0.04561643,
p, 14609,-0.05998099,0.02488718,-0.00214628,0.00922690,-0.91877425,0.39203218,-0.04517822,
u, 14618,,,,,,,,0.00000000,0.00000000
p, 14618,-0.06293422,0.02051549,-0.00607040,0.00942050,-0.92074281,0.38741535,-0.04481831,
p, 14630,-0.05593458,0.02821734,-0.00166191,0.00954104,-0.92213941,0.38412297,-0.04452166,
p, 14641,-0.05538733,0.03628732,0.00105351,0.00960784,-0.92322671,0.38154709,-0.04423120,
p, 14651,-0.05760089,0.04019261,0.00560793,0.00970914,-0.92456901,0.37831396,-0.04394625,
p, 14661,-0.05652567,0.03809405,0.00351350,0.00982612,-0.92602265,0.37476999,-0.04365224,
p, 14671,-0.05625508,0.04395700,0.00615128,0.00993381,-0.92747653,0.37118801,-0.04335015,
p, 14681,-0.05380045,0.04006016,0.00262551,0.01010234,-0.92956293,0.36595082,-0.04294486,
p, 14692,-0.05260365,0.03531939,0.00235035,0.01025231,-0.93126601,0.36163262,-0.04260779,
p, 14703,-0.05570551,0.03089669,0.00760676,0.01039374,-0.93276298,0.35779306,-0.04230637,
p, 14714,-0.06001829,0.03307225,0.00661099,0.01056236,-0.93472183,0.35267490,-0.04187984,
u, 14718,,,,,,,,0.00000000,0.00000000
p, 14725,-0.05621611,0.03045214,0.00465590,0.01067262,-0.93598288,0.34936190,-0.04160251,
p, 14735,-0.06021255,0.03536004,0.00296882,0.01076947,-0.93717444,0.34619325,-0.04132695,
p, 14745,-0.05638954,0.03573880,0.00117160,0.01086228,-0.93832880,0.34308815,-0.04105304,
p, 14755,-0.05460773,0.03566878,0.00104357,0.01098381,-0.94005418,0.33835626,-0.04066724,
p, 14765,-0.05695932,0.03867026,-0.00242316,0.01107118,-0.94142824,0.33455375,-0.04035186,
p, 14776,-0.05551061,0.03590618,-0.00023502,0.01115142,-0.94260645,0.33125946,-0.04007172,
p, 14787,-0.05191760,0.03100698,-0.00107118,0.01123167,-0.94367760,0.32823169,-0.03981112,
p, 14797,-0.05137231,0.02579555,0.00755920,0.01132800,-0.94468915,0.32534206,-0.03955225,
p, 14808,-0.05034436,0.02815656,-0.00153046,0.01142838,-0.94589555,0.32184795,-0.03924388,
u, 14818,,,,,,,,0.00000000,0.00000000
p, 14818,-0.04526038,0.02656760,-0.00410691,0.01152168,-0.94695431,0.31875128,-0.03897662,
p, 14828,-0.03696582,0.03538616,-0.00341911,0.01157187,-0.94792813,0.31587487,-0.03873685,
p, 14838,-0.03728937,0.02776388,-0.00380001,0.01164289,-0.94885623,0.31310433,-0.03850847,
p, 14849,-0.04052579,0.03228404,0.00117464,0.01172926,-0.95014250,0.30920589,-0.03816918,
p, 14860,-0.04365462,0.03903020,-0.00144973,0.01177581,-0.95116234,0.30609402,-0.03786727,
p, 14871,-0.05235252,0.04251010,-0.00078590,0.01180765,-0.95203739,0.30340111,-0.03759010,
p, 14881,-0.04604320,0.04144242,-0.00068287,0.01184139,-0.95288384,0.30076605,-0.03733867,
p, 14891,-0.04735937,0.04175545,0.00646399,0.01186564,-0.95368671,0.29824263,-0.03709798,
p, 14901,-0.05359454,0.03416813,-0.00092603,0.01189895,-0.95460224,0.29533315,-0.03679655,
p, 14911,-0.05433176,0.03026003,0.00882196,0.01193222,-0.95542175,0.29270521,-0.03652764,
u, 14918,,,,,,,,0.00000000,0.00000000
p, 14921,-0.05038213,0.03233430,0.00052762,0.01195759,-0.95616204,0.29031050,-0.03628337,
p, 14931,-0.04415011,0.02620743,0.00347578,0.01198239,-0.95685232,0.28805420,-0.03608268,
p, 14941,-0.03576982,0.02841591,0.00056297,0.01200776,-0.95751262,0.28587687,-0.03589095,
p, 14951,-0.04301614,0.02400410,-0.00013050,0.01204992,-0.95832270,0.28317839,-0.03561675,
p, 14961,-0.04013905,0.02851206,0.00442083,0.01207124,-0.95903170,0.28079841,-0.03537705,
p, 14971,-0.04584925,0.02920964,-0.00232907,0.01209831,-0.95966071,0.27867180,-0.03514855,
p, 14981,-0.04138776,0.02747561,0.00554933,0.01213844,-0.96042967,0.27603859,-0.03488215,
p, 14991,-0.04589377,0.02809633,0.00829835,0.01216638,-0.96135104,0.27284819,-0.03452813,
p, 15002,-0.04115062,0.02710206,0.00016663,0.01219271,-0.96207720,0.27031398,-0.03425191,
p, 15013,-0.03621557,0.02819184,0.00416504,0.01219622,-0.96270716,0.26809555,-0.03402372,
u, 15019,,,,,,,,0.00000000,0.00000000
p, 15023,-0.03847064,0.02619614,-0.00529510,0.01220477,-0.96329302,0.26601350,-0.03380870,
p, 15033,-0.04940195,0.02413780,0.00195297,0.01222460,-0.96380848,0.26417160,-0.03358167,
p, 15043,-0.04471288,0.02302471,-0.00148781,0.01224007,-0.96427768,0.26248235,-0.03337511,
p, 15053,-0.05024950,0.02117117,0.00265881,0.01225947,-0.96471924,0.26088256,-0.03316720,
p, 15063,-0.04882165,0.01955775,0.00744818,0.01226416,-0.96536577,0.25851101,-0.03287996,
p, 15074,-0.04529248,0.02231397,0.00667666,0.01226230,-0.96589971,0.25653955,-0.03264893,
p, 15085,-0.03991919,0.02646155,0.00801515,0.01224516,-0.96648055,0.25437319,-0.03240577,
p, 15096,-0.03926196,0.02188251,0.00479340,0.01225614,-0.96697474,0.25251782,-0.03218628,
p, 15107,-0.04051264,0.02877878,0.00929367,0.01225545,-0.96741754,0.25084326,-0.03199244,