stage, millis, accel_x, accel_y, accel_z, quat_w, quat_X, quat_y, quat_z, of_x, of_y
u, 6682,,,,,,,,0.00000000,0.00000000
p, 6682,-0.20156665,0.16974756,-1.95222235,0.13655250,-0.12067965,0.07668848,-0.98025668,
p, 6693,-0.19866845,0.17487012,-1.95203280,0.13569757,-0.12163379,0.07744022,-0.98019862,
p, 6703,-0.19930218,0.17037421,-1.95183885,0.13483608,-0.12257165,0.07819305,-0.98014104,
p, 6713,-0.20145774,0.17664829,-1.94652343,0.13400748,-0.12350066,0.07892190,-0.98007977,
p, 6723,-0.20310771,0.17064531,-1.94114196,0.13307026,-0.12466824,0.07983027,-0.97998565,
p, 6733,-0.19997305,0.16908577,-1.94540930,0.13223103,-0.12574568,0.08063260,-0.97989595,
p, 6743,-0.20198390,0.17198338,-1.94961810,0.13143015,-0.12676287,0.08140451,-0.97980887,
p, 6753,-0.20337842,0.17663652,-1.94745004,0.13065499,-0.12774274,0.08217137,-0.97972143,
p, 6763,-0.20583808,0.18534890,-1.94928813,0.12945472,-0.12917380,0.08331186,-0.97959554,
p, 6774,-0.20892185,0.18216725,-1.94616354,0.12853831,-0.13036765,0.08425589,-0.97947752,
u, 6783,,,,,,,,0.00000000,0.00000000
p, 6785,-0.21285936,0.18865594,-1.95104814,0.12770468,-0.13146129,0.08510463,-0.97936743,
p, 6795,-0.21768914,0.19312100,-1.94822609,0.12687832,-0.13249137,0.08590010,-0.97926688,
p, 6805,-0.21348935,0.19809249,-1.95152998,0.12601778,-0.13350993,0.08669978,-0.97916931,
p, 6815,-0.21940032,0.20084526,-1.94374442,0.12525362,-0.13452113,0.08747175,-0.97906029,
p, 6826,-0.22909255,0.19359279,-1.93950069,0.12423175,-0.13603668,0.08866385,-0.97887272,
p, 6837,-0.23290107,0.19515455,-1.94087315,0.12339345,-0.13729072,0.08965202,-0.97871387,
p, 6848,-0.22698520,0.19616431,-1.94261217,0.12249766,-0.13870651,0.09074485,-0.97852576,
p, 6859,-0.23328936,0.19847736,-1.94351983,0.12174788,-0.13993835,0.09170210,-0.97835505,
p, 6869,-0.23082620,0.19900064,-1.93864071,0.12114452,-0.14109337,0.09257729,-0.97818208,
p, 6879,-0.23640004,0.20157400,-1.93110466,0.12055467,-0.14219320,0.09343400,-0.97801447,
u, 6884,,,,,,,,0.00000000,0.00000000
p, 6889,-0.23504420,0.20424922,-1.93495846,0.11951058,-0.14379293,0.09469392,-0.97778618,
p, 6899,-0.24218640,0.20666257,-1.93030882,0.11868689,-0.14512932,0.09574080,-0.97758734,
p, 6910,-0.24552099,0.20117827,-1.93970275,0.11794734,-0.14633548,0.09670504,-0.97740257,
p, 6921,-0.24892780,0.20706496,-1.93659484,0.11725451,-0.14748141,0.09759685,-0.97722542,
p, 6932,-0.25137889,0.20935218,-1.92746496,0.11649024,-0.14886735,0.09868610,-0.97699690,
p, 6942,-0.25360388,0.21135792,-1.92873645,0.11588819,-0.15011907,0.09965248,-0.97677910,
p, 6952,-0.25767657,0.21618311,-1.92812860,0.11522615,-0.15129012,0.10059345,-0.97658044,
p, 6962,-0.25782084,0.21700117,-1.92462039,0.11451349,-0.15243086,0.10150047,-0.97639310,
p, 6972,-0.25476491,0.21706687,-1.92745912,0.11391205,-0.15356702,0.10238922,-0.97619277,
p, 6982,-0.26144618,0.22034222,-1.92290473,0.11294316,-0.15527947,0.10374220,-0.97588992,
u, 6985,,,,,,,,0.00000000,0.00000000
p, 6993,-0.26585492,0.22773245,-1.91666019,0.11215588,-0.15671971,0.10485823,-0.97563136,
p, 7004,-0.26303917,0.22890987,-1.92785835,0.11144827,-0.15802886,0.10587265,-0.97539210,
p, 7014,-0.26682690,0.22795743,-1.92239475,0.11075079,-0.15925387,0.10684519,-0.97516656,
p, 7025,-0.26988041,0.23565993,-1.91410875,0.11000526,-0.16106072,0.10822919,-0.97480023,
p, 7036,-0.27030092,0.23408668,-1.91010308,0.10941901,-0.16257006,0.10937834,-0.97448766,
p, 7046,-0.27547029,0.23498616,-1.91213620,0.10887852,-0.16391364,0.11043116,-0.97420490,
p, 7056,-0.27719283,0.23563425,-1.91522789,0.10830878,-0.16518266,0.11143498,-0.97394013,
p, 7066,-0.28221214,0.23828527,-1.91064739,0.10738359,-0.16702318,0.11289007,-0.97355938,
p, 7076,-0.28533214,0.24809466,-1.90602255,0.10659140,-0.16854437,0.11409487,-0.97324401,
u, 7086,,,,,,,,0.00000000,0.00000000
p, 7087,-0.28895971,0.24687296,-1.90649486,0.10591920,-0.16990733,0.11518353,-0.97295272,
p, 7098,-0.29505360,0.24185231,-1.90924871,0.10531402,-0.17120688,0.11622238,-0.97266746,
p, 7108,-0.30286127,0.24298884,-1.90557504,0.10475426,-0.17246497,0.11723319,-0.97238469,
p, 7118,-0.29031613,0.24575436,-1.90331089,0.10416622,-0.17371869,0.11824419,-0.97210234,
p, 7128,-0.28958249,0.24858671,-1.90124798,0.10349388,-0.17496608,0.11926728,-0.97182548,
p, 7138,-0.29830229,0.25926498,-1.89762259,0.10262401,-0.17684337,0.12077896,-0.97138929,
p, 7148,-0.30479079,0.25657034,-1.90119624,0.10191502,-0.17842329,0.12204944,-0.97101629,
p, 7159,-0.30140510,0.25304866,-1.89272916,0.10124233,-0.17986326,0.12321246,-0.97067451,
p, 7170,-0.30794436,0.25814664,-1.90022206,0.10058587,-0.18121898,0.12432174,-0.97034955,
p, 7180,-0.31187776,0.25878066,-1.89810145,0.10000385,-0.18254426,0.12540245,-0.97002250,
u, 7187,,,,,,,,0.00000000,0.00000000
p, 7190,-0.31382155,0.26204261,-1.89775062,0.09941604,-0.18386963,0.12646443,-0.96969485,
p, 7201,-0.31546485,0.26350576,-1.89774311,0.09848091,-0.18585038,0.12807995,-0.96919835,
p, 7211,-0.31992573,0.26992121,-1.89548874,0.09772475,-0.18750982,0.12943748,-0.96877491,
p, 7221,-0.32336923,0.27000087,-1.89502525,0.09703141,-0.18900990,0.13066548,-0.96838880,
p, 7231,-0.32510626,0.27815077,-1.88811779,0.09646860,-0.19045940,0.13180792,-0.96800667,
p, 7241,-0.32719547,0.28379738,-1.88839483,0.09572546,-0.19256657,0.13345507,-0.96743584,
p, 7252,-0.33216920,0.27887684,-1.88426852,0.09510317,-0.19431785,0.13482583,-0.96695721,
p, 7263,-0.33224517,0.28282526,-1.88135087,0.09456614,-0.19590420,0.13605607,-0.96651804,
p, 7273,-0.33111587,0.28462398,-1.88341689,0.09408629,-0.19742164,0.13721183,-0.96609318,
p, 7283,-0.33789068,0.28682798,-1.88210762,0.09363346,-0.19888753,0.13834465,-0.96567535,
u, 7287,,,,,,,,0.00000000,0.00000000
p, 7293,-0.33669284,0.28924987,-1.88055277,0.09318050,-0.20034459,0.13947645,-0.96525526,
p, 7303,-0.34538651,0.30565858,-1.87474751,0.09273127,-0.20177597,0.14058942,-0.96483898,
p, 7313,-0.33835793,0.30335724,-1.86803782,0.09200972,-0.20394033,0.14231253,-0.96419770,
p, 7324,-0.34341908,0.30424362,-1.86694121,0.09142037,-0.20573896,0.14374223,-0.96365958,
p, 7335,-0.34992456,0.30676964,-1.87275589,0.09097639,-0.20738797,0.14502662,-0.96315622,
p, 7345,-0.35201764,0.30884898,-1.86446333,0.09046869,-0.20893690,0.14624667,-0.96268523,
p, 7355,-0.36142600,0.30514318,-1.86666465,0.08992232,-0.21044147,0.14746600,-0.96222293,
p, 7365,-0.35864574,0.31194964,-1.85164440,0.08936040,-0.21193007,0.14867431,-0.96176255,
p, 7375,-0.36258093,0.31851906,-1.85407543,0.08846343,-0.21416761,0.15049514,-0.96106374,
p, 7385,-0.37220079,0.32000324,-1.86109686,0.08782323,-0.21605039,0.15200810,-0.96046299,
u, 7387,,,,,,,,0.00000000,0.00000000
p, 7396,-0.37393609,0.31819713,-1.84843326,0.08724901,-0.21774703,0.15337408,-0.95991564,
p, 7406,-0.37480372,0.31729406,-1.84210145,0.08696191,-0.21859536,0.15405706,-0.95964193,
p, 7416,-0.37774763,0.31778857,-1.84476447,0.08581677,-0.22127643,0.15631726,-0.95875907,
p, 7427,-0.37957817,0.32477260,-1.83768833,0.08482623,-0.22336048,0.15810354,-0.95807087,
p, 7438,-0.38181332,0.32234418,-1.83646202,0.08412797,-0.22517717,0.15963127,-0.95745498,
p, 7448,-0.38890469,0.32863730,-1.84057903,0.08360124,-0.22687262,0.16102198,-0.95686901,
p, 7458,-0.39039809,0.33511028,-1.83393240,0.08313856,-0.22852227,0.16233411,-0.95629573,
p, 7468,-0.39519599,0.34390861,-1.83604121,0.08268686,-0.23014790,0.16363445,-0.95572376,
p, 7478,-0.40737581,0.34556118,-1.83253324,0.08195801,-0.23254125,0.16561827,-0.95486218,
u, 7487,,,,,,,,0.00000000,0.00000000
p, 7488,-0.40946031,0.34216076,-1.83228230,0.08133513,-0.23453480,0.16725552,-0.95414251,
p, 7499,-0.40458214,0.34892920,-1.83142436,0.08076621,-0.23635337,0.16872546,-0.95348394,
p, 7510,-0.40353161,0.35125291,-1.83099532,0.08029869,-0.23808540,0.17008898,-0.95285082,
p, 7520,-0.41220739,0.35651940,-1.83612907,0.07989341,-0.23978442,0.17141500,-0.95222157,
p, 7530,-0.41304338,0.35687909,-1.82158327,0.07945232,-0.24145070,0.17272985,-0.95159996,
p, 7540,-0.40997475,0.35775322,-1.81743073,0.07899252,-0.24311081,0.17405972,-0.95097315,
p, 7550,-0.41692433,0.35692379,-1.80820572,0.07852952,-0.24477255,0.17539406,-0.95033991,
p, 7561,-0.42710537,0.36597717,-1.80340242,0.07776199,-0.24726117,0.17744529,-0.94937396,
p, 7572,-0.42241499,0.36753601,-1.80525804,0.07710542,-0.24936514,0.17916161,-0.94855458,
p, 7582,-0.42682183,0.36289093,-1.80466759,0.07628654,-0.25211778,0.18140824,-0.94746238,
u, 7587,,,,,,,,0.00000000,0.00000000
p, 7593,-0.44188839,0.36155260,-1.79298162,0.07558572,-0.25431955,0.18325779,-0.94657481,
p, 7604,-0.44694212,0.36843652,-1.79135013,0.07496685,-0.25627419,0.18489331,-0.94578004,
p, 7614,-0.44991910,0.37601361,-1.78911531,0.07444148,-0.25811645,0.18641199,-0.94502342,
p, 7624,-0.44845504,0.37856621,-1.78630424,0.07387868,-0.25989729,0.18789780,-0.94428575,
p, 7634,-0.44744834,0.37764522,-1.78489864,0.07336053,-0.26165959,0.18936074,-0.94354749,
p, 7644,-0.45639783,0.37548339,-1.78102970,0.07296993,-0.26341361,0.19079235,-0.94280136,
p, 7654,-0.45328131,0.38633484,-1.77707338,0.07247081,-0.26609898,0.19289246,-0.94165403,
p, 7665,-0.45734590,0.38764068,-1.77987885,0.07201019,-0.26834992,0.19468173,-0.94068205,
p, 7676,-0.46788499,0.38466966,-1.77703965,0.07157560,-0.27036449,0.19632551,-0.93979728,
u, 7687,,,,,,,,0.00000000,0.00000000
p, 7687,-0.47069025,0.38662499,-1.77503252,0.07116032,-0.27227181,0.19788334,-0.93895197,
p, 7697,-0.46840024,0.39125714,-1.76245522,0.07076703,-0.27412325,0.19938052,-0.93812662,
p, 7707,-0.46797240,0.38997215,-1.76747334,0.07041591,-0.27597147,0.20088127,-0.93729103,
p, 7717,-0.46899444,0.39861462,-1.76696110,0.06986028,-0.27874693,0.20310147,-0.93602788,
p, 7727,-0.46950546,0.40293586,-1.76670504,0.06958246,-0.28013468,0.20421156,-0.93539631,
p, 7737,-0.48073202,0.40623325,-1.75431657,0.06910346,-0.28220069,0.20590849,-0.93443763,
p, 7747,-0.47853282,0.40939257,-1.74252236,0.06857604,-0.28511965,0.20824064,-0.93306810,
p, 7758,-0.48478794,0.41319239,-1.74170637,0.06812476,-0.28753996,0.21016693,-0.93192631,
p, 7769,-0.48792315,0.41267377,-1.73613334,0.06765982,-0.28968343,0.21191132,-0.93090218,
p, 7779,-0.49778390,0.41783133,-1.73889339,0.06713824,-0.29167631,0.21359530,-0.92993343,
u, 7788,,,,,,,,0.00000000,0.00000000
p, 7790,-0.49443638,0.42069238,-1.73139286,0.06659743,-0.29361066,0.21524316,-0.92898393,
p, 7800,-0.50129229,0.42215344,-1.73072481,0.06607814,-0.29551035,0.21686709,-0.92804104,
p, 7810,-0.50082922,0.42624092,-1.72615647,0.06556772,-0.29791123,0.21884999,-0.92684150,
p, 7820,-0.50987506,0.43030643,-1.72282708,0.06504887,-0.30106390,0.22138777,-0.92525011,
p, 7830,-0.51051462,0.44528627,-1.71364737,0.06457598,-0.30361399,0.22344410,-0.92395568,
p, 7841,-0.52349919,0.44159913,-1.70934749,0.06414066,-0.30584300,0.22528893,-0.92280412,
p, 7852,-0.52267492,0.44466889,-1.70476377,0.06372719,-0.30793482,0.22701427,-0.92171526,
p, 7862,-0.51910418,0.44133621,-1.70734715,0.06335059,-0.30997673,0.22866771,-0.92064857,
p, 7872,-0.52637494,0.44800881,-1.70931780,0.06299988,-0.31200337,0.23030053,-0.91958106,
p, 7882,-0.52757651,0.44891894,-1.69267917,0.06261279,-0.31400239,0.23192985,-0.91851729,
u, 7889,,,,,,,,0.00000000,0.00000000
p, 7892,-0.53306007,0.45648462,-1.68673265,0.06221411,-0.31598637,0.23356673,-0.91744888,
p, 7902,-0.53919697,0.45272961,-1.68246245,0.06182202,-0.31795970,0.23520966,-0.91637337,
p, 7912,-0.54370737,0.45153111,-1.66512191,0.06132292,-0.32148659,0.23804188,-0.91443396,
p, 7922,-0.54742742,0.46170458,-1.66945219,0.06096295,-0.32428667,0.24026893,-0.91288602,
p, 7933,-0.55709231,0.46436518,-1.66166854,0.06069763,-0.32672569,0.24217749,-0.91153109,
p, 7944,-0.55215913,0.47494993,-1.65783012,0.06043425,-0.32897994,0.24392736,-0.91027242,
p, 7954,-0.55212629,0.47246033,-1.65664339,0.06012362,-0.33113390,0.24564652,-0.90905023,
p, 7964,-0.55355948,0.47269562,-1.65286088,0.05972128,-0.33321586,0.24737567,-0.90784711,
p, 7974,-0.55085814,0.47230208,-1.64289010,0.05927223,-0.33527502,0.24909227,-0.90664876,
p, 7984,-0.55974609,0.47809440,-1.63621855,0.05874905,-0.33785364,0.25123334,-0.90513104,
u, 7990,,,,,,,,0.00000000,0.00000000
p, 7994,-0.56074917,0.47709194,-1.63524032,0.05835165,-0.34019142,0.25314552,-0.90374744,
p, 8004,-0.56511122,0.48050457,-1.62683189,0.05794004,-0.34238243,0.25497615,-0.90243167,
p, 8014,-0.56528568,0.48073843,-1.62105608,0.05751218,-0.34449446,0.25676355,-0.90114826,
p, 8024,-0.57481813,0.48354089,-1.62441659,0.05693932,-0.34764615,0.25939831,-0.89921165,
p, 8035,-0.57784486,0.49320477,-1.60979283,0.05648970,-0.35028666,0.26156464,-0.89758682,
p, 8046,-0.58221161,0.49785361,-1.60693645,0.05610207,-0.35321206,0.26389673,-0.89577889,
p, 8057,-0.59360367,0.50187176,-1.59964132,0.05576085,-0.35573870,0.26592898,-0.89419973,
p, 8067,-0.59264684,0.49847922,-1.59693980,0.05542585,-0.35806751,0.26781958,-0.89272749,
p, 8077,-0.59209216,0.49897259,-1.58600652,0.05508512,-0.36029649,0.26966059,-0.89129782,
p, 8087,-0.59808618,0.50430810,-1.58827615,0.05474138,-0.36247665,0.27146563,-0.88988686,
u, 8091,,,,,,,,0.00000000,0.00000000
p, 8097,-0.60263956,0.51439923,-1.58239186,0.05419178,-0.36570293,0.27412504,-0.88777637,
p, 8107,-0.61114949,0.51208246,-1.57370472,0.05376051,-0.36838481,0.27634829,-0.88600338,
p, 8117,-0.61540449,0.51092404,-1.56936121,0.05354487,-0.36972576,0.27745992,-0.88511688,
p, 8127,-0.60847586,0.51908052,-1.55845380,0.05313918,-0.37313375,0.28018850,-0.88284057,
p, 8138,-0.61537230,0.51283616,-1.55524313,0.05280588,-0.37592173,0.28243941,-0.88095891,
p, 8149,-0.61823303,0.52521694,-1.54242253,0.05249422,-0.37841964,0.28443018,-0.87926805,
p, 8159,-0.61977780,0.52667707,-1.54404604,0.05218216,-0.38076508,0.28632584,-0.87765920,
p, 8169,-0.60991484,0.53023767,-1.53432918,0.05189410,-0.38304359,0.28815722,-0.87608528,
p, 8179,-0.61897564,0.53192639,-1.53746641,0.05166653,-0.38529462,0.28995246,-0.87451875,
p, 8189,-0.63048697,0.52694190,-1.52273870,0.05139086,-0.38866201,0.29260325,-0.87215167,
u, 8192,,,,,,,,0.00000000,0.00000000
p, 8199,-0.62583613,0.53431445,-1.51378024,0.05120692,-0.39149952,0.29477671,-0.87015975,
p, 8210,-0.63210142,0.53639090,-1.50625682,0.05098833,-0.39401889,0.29675028,-0.86836493,
p, 8221,-0.63518065,0.53948909,-1.49775732,0.05069326,-0.39695233,0.29905438,-0.86625147,
p, 8232,-0.63849795,0.54527247,-1.50157952,0.05046994,-0.39957821,0.30108050,-0.86435461,
p, 8242,-0.63872224,0.55360395,-1.48374569,0.05030181,-0.40203902,0.30295882,-0.86256689,
p, 8252,-0.64932477,0.54517353,-1.48458672,0.05017994,-0.40441445,0.30477652,-0.86082280,
p, 8262,-0.65096396,0.55493540,-1.47645473,0.05008229,-0.40675458,0.30654332,-0.85909772,
p, 8272,-0.65030348,0.55547523,-1.47283888,0.04991960,-0.40905339,0.30833006,-0.85737514,
p, 8282,-0.64966804,0.55680561,-1.46723914,0.04959356,-0.41245812,0.31103665,-0.85477328,
u, 8292,,,,,,,,0.00000000,0.00000000
p, 8292,-0.65965760,0.55993509,-1.45353687,0.04926140,-0.41586292,0.31374323,-0.85214543,
p, 8302,-0.66288239,0.56028676,-1.44950104,0.04899572,-0.41870052,0.31599349,-0.84993941,
p, 8313,-0.66540265,0.56607783,-1.44219589,0.04876909,-0.42126849,0.31801468,-0.84793049,
p, 8324,-0.66485465,0.56701261,-1.43520927,0.04852479,-0.42367619,0.31994665,-0.84601843,
p, 8334,-0.66912776,0.57328594,-1.42788601,0.04827670,-0.42601612,0.32180944,-0.84415072,
p, 8344,-0.67188990,0.57321829,-1.42327070,0.04806102,-0.42833918,0.32364038,-0.84228641,
p, 8354,-0.67923719,0.57435179,-1.40855765,0.04790891,-0.43065473,0.32542396,-0.84042573,
p, 8364,-0.68373477,0.57535338,-1.40390956,0.04779892,-0.43297201,0.32718587,-0.83855557,
p, 8375,-0.69076723,0.57522857,-1.39565754,0.04779272,-0.43651521,0.32975695,-0.83569801,
p, 8386,-0.68603611,0.58043808,-1.38026285,0.04779481,-0.43947116,0.33188748,-0.83330226,
u, 8392,,,,,,,,0.00000000,0.00000000
p, 8397,-0.68860674,0.58045650,-1.38111806,0.04771559,-0.44269043,0.33428192,-0.83063912,
p, 8408,-0.69408059,0.58738554,-1.37047541,0.04763274,-0.44547546,0.33633053,-0.82832718,
p, 8418,-0.69267476,0.58877486,-1.36721396,0.04755365,-0.44804507,0.33823738,-0.82616919,
p, 8428,-0.68419749,0.58708155,-1.35908306,0.04744151,-0.45051652,0.34005645,-0.82408428,
p, 8438,-0.69089937,0.59419233,-1.34758663,0.04715607,-0.45405167,0.34279299,-0.82101244,
p, 8448,-0.70442796,0.59416187,-1.34190702,0.04691750,-0.45695424,0.34507343,-0.81845784,
p, 8459,-0.70893395,0.59075922,-1.33494735,0.04673535,-0.45957577,0.34709626,-0.81614482,
p, 8470,-0.70077282,0.58264160,-1.33127677,0.04664630,-0.46265852,0.34938627,-0.81342447,
p, 8481,-0.69880557,0.58978271,-1.31601381,0.04659621,-0.46540236,0.35136026,-0.81101024,
p, 8491,-0.70352876,0.59336090,-1.30741334,0.04656280,-0.46794581,0.35320348,-0.80874717,
u, 8492,,,,,,,,0.00000000,0.00000000
p, 8501,-0.70624131,0.60023117,-1.29773438,0.04652613,-0.47039616,0.35496601,-0.80655503,
p, 8511,-0.70619380,0.60706902,-1.29236841,0.04646003,-0.47277927,0.35673070,-0.80438519,
p, 8521,-0.71360105,0.60082912,-1.27662396,0.04644099,-0.47635639,0.35927719,-0.80112630,
p, 8532,-0.71343660,0.60324812,-1.27449667,0.04640259,-0.47933072,0.36141416,-0.79838932,
p, 8543,-0.71749711,0.60315299,-1.26527715,0.04635147,-0.48198479,0.36334908,-0.79591525,
p, 8554,-0.72098458,0.60592067,-1.25395358,0.04628629,-0.48448455,0.36517704,-0.79356384,
p, 8564,-0.71760136,0.60713667,-1.24868083,0.04629324,-0.48694974,0.36686939,-0.79127258,
p, 8574,-0.71500182,0.61542749,-1.23849905,0.04635544,-0.49000657,0.36890900,-0.78842473,
p, 8584,-0.71753204,0.61478162,-1.24076295,0.04638349,-0.49272931,0.37078005,-0.78584498,
u, 8592,,,,,,,,0.00000000,0.00000000
p, 8594,-0.72040695,0.61377966,-1.22295105,0.04646970,-0.49530393,0.37248641,-0.78341234,
p, 8604,-0.72391963,0.61893970,-1.21899652,0.04658643,-0.49780428,0.37412065,-0.78103971,
p, 8614,-0.72026670,0.61545432,-1.21099210,0.04668717,-0.50144589,0.37655449,-0.77751642,
p, 8625,-0.72606963,0.61371928,-1.19772780,0.04677184,-0.50446111,0.37857842,-0.77457356,
p, 8636,-0.72753680,0.61064684,-1.18941712,0.04690925,-0.50718427,0.38035357,-0.77191603,
p, 8647,-0.73322183,0.62269098,-1.18171418,0.04702488,-0.51035500,0.38240951,-0.76879460,
p, 8657,-0.73336351,0.61890161,-1.17588663,0.04710134,-0.51312488,0.38425058,-0.76602542,
p, 8667,-0.73412865,0.61692303,-1.15567708,0.04716475,-0.51567543,0.38595110,-0.76345241,
p, 8677,-0.74227798,0.62195337,-1.15456736,0.04725557,-0.51815271,0.38757628,-0.76094413,
p, 8687,-0.73791450,0.61883801,-1.14634490,0.04734665,-0.52177107,0.38995391,-0.75723177,
u, 8693,,,,,,,,0.00000000,0.00000000
p, 8697,-0.73344398,0.62248361,-1.13415420,0.04747266,-0.52479064,0.39186633,-0.75414515,
p, 8708,-0.73230731,0.61973637,-1.13264418,0.04763097,-0.52751958,0.39354309,-0.75135654,
p, 8719,-0.73403543,0.62672460,-1.11888862,0.04774442,-0.53006601,0.39514333,-0.74871588,
p, 8729,-0.73643303,0.62441272,-1.11582553,0.04785411,-0.53253078,0.39670256,-0.74613297,
p, 8739,-0.73820400,0.63006985,-1.10326958,0.04797096,-0.53496647,0.39818335,-0.74359143,
p, 8750,-0.74059248,0.63532454,-1.09586239,0.04825822,-0.53862399,0.40030313,-0.73977327,
p, 8760,-0.74532676,0.63464832,-1.08517027,0.04842378,-0.54103863,0.40172908,-0.73722965,
p, 8770,-0.75206554,0.63623285,-1.08435607,0.04859991,-0.54345143,0.40314871,-0.73466724,
p, 8781,-0.74290746,0.63465238,-1.07232177,0.04896482,-0.54711962,0.40513664,-0.73080611,
p, 8792,-0.74752951,0.63205397,-1.05914068,0.04923214,-0.55015022,0.40680897,-0.72757840,
u, 8793,,,,,,,,0.00000000,0.00000000
p, 8803,-0.74655986,0.63283759,-1.04707980,0.04945156,-0.55285668,0.40833026,-0.72465760,
p, 8813,-0.74255025,0.63137543,-1.04748094,0.04965057,-0.55542898,0.40976337,-0.72186565,
p, 8824,-0.74534434,0.62227494,-1.03451324,0.04996950,-0.55912328,0.41178918,-0.71781683,
p, 8835,-0.74093544,0.62266088,-1.02500045,0.05023138,-0.56216055,0.41344810,-0.71446711,
p, 8845,-0.73802906,0.62360919,-1.02348661,0.05046430,-0.56489646,0.41492575,-0.71143389,
p, 8855,-0.74170280,0.61973459,-1.01115584,0.05070253,-0.56745553,0.41629893,-0.70857620,
p, 8865,-0.73936641,0.62243593,-1.00388420,0.05094220,-0.56993705,0.41760772,-0.70579422,
p, 8875,-0.74227995,0.62885255,-0.98981136,0.05128645,-0.57356000,0.41947168,-0.70170593,
p, 8886,-0.74194384,0.62956607,-0.97535920,0.05160413,-0.57657200,0.42098135,-0.69830358,
u, 8893,,,,,,,,0.00000000,0.00000000
p, 8897,-0.74315667,0.63837618,-0.96413529,0.05185852,-0.57926261,0.42232922,-0.69524151,
p, 8907,-0.74193966,0.63389301,-0.95745522,0.05208630,-0.58178389,0.42359886,-0.69234437,
p, 8917,-0.74096495,0.63396311,-0.95448136,0.05229332,-0.58423173,0.42482117,-0.68951517,
p, 8927,-0.74448299,0.63750768,-0.93951333,0.05247278,-0.58661097,0.42601883,-0.68673873,
p, 8937,-0.73955107,0.63818896,-0.92555195,0.05274349,-0.59013480,0.42774379,-0.68260217,
p, 8947,-0.74612594,0.63298303,-0.92676520,0.05305282,-0.59310907,0.42912292,-0.67912686,
p, 8957,-0.74392784,0.62760293,-0.91472232,0.05344108,-0.59639239,0.43055126,-0.67530334,
p, 8967,-0.74790996,0.62737721,-0.90691561,0.05374265,-0.59919173,0.43181467,-0.67199033,
p, 8978,-0.74646020,0.62724912,-0.89322376,0.05407968,-0.60180175,0.43288881,-0.66893709,
p, 8989,-0.74150097,0.62424010,-0.88656092,0.05445550,-0.60432947,0.43386590,-0.66599131,
u, 8993,,,,,,,,0.00000000,0.00000000
p, 9000,-0.73528296,0.62439120,-0.87832379,0.05482313,-0.60679376,0.43479067,-0.66311330,
p, 9010,-0.74129868,0.61979753,-0.88144553,0.05516092,-0.60920268,0.43575591,-0.66023803,
p, 9020,-0.73660088,0.62596929,-0.87587291,0.05540605,-0.61154014,0.43677211,-0.65737987,
p, 9031,-0.73611355,0.62714022,-0.85668337,0.05574692,-0.61499923,0.43826389,-0.65310419,
p, 9041,-0.74246931,0.62195027,-0.84964448,0.05602540,-0.61732459,0.43921682,-0.65024734,
p, 9051,-0.73960471,0.62539774,-0.83488691,0.05650140,-0.62085223,0.44051415,-0.64594531,
p, 9061,-0.73817241,0.62712145,-0.82750815,0.05673940,-0.62261605,0.44116279,-0.64379430,
p, 9071,-0.73131460,0.62178826,-0.81436598,0.05721505,-0.62583935,0.44227174,-0.63984585,
p, 9081,-0.72565031,0.62305844,-0.80799323,0.05769211,-0.62920666,0.44338173,-0.63571304,
p, 9092,-0.72273421,0.61808592,-0.81554139,0.05810948,-0.63207746,0.44430763,-0.63217413,
u, 9093,,,,,,,,0.00000000,0.00000000
p, 9103,-0.72876060,0.61901760,-0.79503113,0.05847654,-0.63465083,0.44512776,-0.62898207,
p, 9113,-0.72850078,0.61360884,-0.79146695,0.05878626,-0.63706124,0.44592696,-0.62594706,
p, 9123,-0.73211694,0.61895347,-0.78046858,0.05912418,-0.63942230,0.44668165,-0.62296510,
p, 9133,-0.73936474,0.61379802,-0.77214652,0.05948520,-0.64175165,0.44739401,-0.62001884,
p, 9143,-0.73038489,0.61919302,-0.76515496,0.05981063,-0.64406288,0.44808862,-0.61708343,
p, 9153,-0.71985245,0.61274290,-0.75292355,0.06029515,-0.64745575,0.44911408,-0.61271119,
p, 9163,-0.71458626,0.60951781,-0.74680781,0.06053741,-0.64915216,0.44962680,-0.61052507,
p, 9173,-0.71793461,0.60787475,-0.73431242,0.06111719,-0.65284705,0.45058531,-0.60578465,
p, 9184,-0.71323061,0.60789245,-0.73433608,0.06158151,-0.65583277,0.45134082,-0.60193974,
u, 9194,,,,,,,,0.00000000,0.00000000
p, 9195,-0.71501374,0.61212039,-0.71554148,0.06195470,-0.65843797,0.45198953,-0.59856677,
p, 9205,-0.71511948,0.60476625,-0.71466619,0.06227618,-0.66084576,0.45259649,-0.59541804,
p, 9215,-0.70777947,0.59871644,-0.70570648,0.06256638,-0.66312826,0.45318988,-0.59239459,
p, 9225,-0.71086144,0.60255802,-0.70221847,0.06290451,-0.66541529,0.45368028,-0.58941352,
p, 9235,-0.70545208,0.60401338,-0.69315791,0.06324983,-0.66768360,0.45414367,-0.58644831,
p, 9245,-0.70274740,0.60645008,-0.68263853,0.06367280,-0.67098057,0.45487556,-0.58204216,
p, 9255,-0.70323372,0.59629297,-0.67261046,0.06416343,-0.67430824,0.45549923,-0.57763112,
p, 9266,-0.70112705,0.59579206,-0.65990603,0.06461427,-0.67711902,0.45591286,-0.57395935,
p, 9277,-0.69547319,0.58916342,-0.65757447,0.06499594,-0.67960286,0.45631695,-0.57065606,
p, 9288,-0.69805551,0.58797771,-0.64773405,0.06532285,-0.68192631,0.45671177,-0.56752741,
u, 9295,,,,,,,,0.00000000,0.00000000
p, 9298,-0.69377720,0.58801806,-0.64810103,0.06561498,-0.68416506,0.45707667,-0.56450081,
p, 9308,-0.69211870,0.58111840,-0.63574946,0.06588352,-0.68633556,0.45745826,-0.56151998,
p, 9318,-0.68540716,0.58966196,-0.62019712,0.06633839,-0.68958777,0.45790029,-0.55709028,
p, 9328,-0.69006991,0.58137578,-0.61071956,0.06668808,-0.69224250,0.45829225,-0.55342358,
p, 9338,-0.69240129,0.57723272,-0.60598081,0.06686293,-0.69356984,0.45848823,-0.55159020,
p, 9348,-0.68876809,0.57589358,-0.60055971,0.06731798,-0.69689476,0.45886266,-0.54699636,
p, 9359,-0.68420494,0.57604802,-0.58671021,0.06769788,-0.69960463,0.45912787,-0.54325628,
p, 9370,-0.67523998,0.58127505,-0.58834565,0.06802414,-0.70203626,0.45933038,-0.53990167,
p, 9381,-0.67035317,0.57226133,-0.58528763,0.06842064,-0.70482898,0.45951664,-0.53603780,
p, 9392,-0.67680562,0.56537414,-0.57509923,0.06874990,-0.70724076,0.45969850,-0.53265607,
u, 9395,,,,,,,,0.00000000,0.00000000
p, 9402,-0.67503458,0.56635559,-0.56307757,0.06908929,-0.70951605,0.45977864,-0.52951181,
p, 9412,-0.66815996,0.56807464,-0.56383401,0.06943886,-0.71172583,0.45978677,-0.52648771,
p, 9422,-0.67387795,0.56602740,-0.55235612,0.06988935,-0.71487820,0.45986494,-0.52205688,
p, 9432,-0.65875447,0.56037271,-0.53955239,0.07022282,-0.71744210,0.45994467,-0.51841468,
p, 9443,-0.66024882,0.55804127,-0.53386009,0.07056302,-0.71976066,0.45996484,-0.51513124,
p, 9454,-0.65789080,0.55367887,-0.52375072,0.07088900,-0.72194743,0.45991877,-0.51206279,
p, 9464,-0.64895272,0.55074233,-0.51729989,0.07120684,-0.72406083,0.45984176,-0.50909835,
p, 9474,-0.65570652,0.54682505,-0.51633275,0.07149491,-0.72609633,0.45981318,-0.50617850,
p, 9484,-0.65348345,0.54506475,-0.50909716,0.07174592,-0.72809160,0.45979893,-0.50328302,
p, 9494,-0.64420843,0.54482543,-0.50615072,0.07209194,-0.73060817,0.45966238,-0.49969232,
u, 9495,,,,,,,,0.00000000,0.00000000
p, 9504,-0.64223361,0.54389709,-0.50479198,0.07238344,-0.73285186,0.45955467,-0.49645376,
p, 9514,-0.63828599,0.53644443,-0.49591863,0.07287909,-0.73603117,0.45919675,-0.49197403,
p, 9524,-0.63212365,0.53654802,-0.48875064,0.07326873,-0.73860902,0.45890892,-0.48831075,
p, 9535,-0.63435256,0.53699654,-0.48732576,0.07360229,-0.74088383,0.45865357,-0.48504937,
p, 9546,-0.62080330,0.54415596,-0.47539049,0.07388496,-0.74301505,0.45837373,-0.48200655,
p, 9556,-0.62324500,0.54370731,-0.46943048,0.07414554,-0.74505538,0.45811018,-0.47906217,
p, 9566,-0.62171924,0.53602910,-0.46648860,0.07437099,-0.74702197,0.45787531,-0.47618306,
p, 9576,-0.61935419,0.49914706,-0.47665250,0.07477507,-0.74947900,0.45752010,-0.47258061,
p, 9586,-0.68077850,0.27925187,-0.38326949,0.07537336,-0.75114322,0.45720255,-0.47015208,
u, 9595,,,,,,,,0.00000000,0.00000000
p, 9597,-0.57335281,0.06678048,-0.45999870,0.07636491,-0.75248563,0.45680118,-0.46823823,
p, 9607,-0.63065529,0.45597476,-0.43653470,0.07748604,-0.75444365,0.45530009,-0.46636027,
p, 9617,-0.55412769,0.22169313,-0.64314830,0.07857621,-0.75643218,0.45349050,-0.46471614,
p, 9627,-0.51586390,0.10455231,-0.74645513,0.07912131,-0.75742644,0.45258570,-0.46389407,
p, 9637,-0.63258100,0.17689469,-0.49030825,0.07911160,-0.75834179,0.45261252,-0.46237552,
p, 9648,-0.69666922,0.52645087,-0.48845553,0.07920745,-0.75879031,0.45264101,-0.46159923,
p, 9659,-0.70947200,0.66150272,-0.72324693,0.07920685,-0.75909567,0.45258638,-0.46115333,
p, 9669,-0.62752497,0.46098512,-0.73866814,0.07905877,-0.75926179,0.45263037,-0.46086362,
p, 9679,-0.49421293,0.54561710,-0.32061276,0.07879367,-0.75964427,0.45267791,-0.46023178,
p, 9689,-0.49561110,0.45591402,-0.22582762,0.07878090,-0.75972760,0.45275849,-0.46001795,
u, 9696,,,,,,,,-0.00777875,0.00777875
p, 9699,-0.73808569,0.69161820,-0.47724792,0.07898355,-0.75996327,0.45315635,-0.45920086,
p, 9709,-0.69401693,0.58714974,-0.67359102,0.07901842,-0.76012677,0.45337182,-0.45871168,
p, 9719,-0.64127421,0.49511296,-0.60605210,0.07896005,-0.76031625,0.45339739,-0.45838261,
p, 9729,-0.65000570,0.34543398,-0.40165886,0.07908531,-0.76031315,0.45342425,-0.45833996,
p, 9740,-0.74344462,0.57301605,-0.53762144,0.07919090,-0.76022685,0.45351207,-0.45837808,
p, 9751,-0.57818139,0.70186752,-0.64744234,0.07924573,-0.76023889,0.45354596,-0.45831528,
p, 9762,-0.54413372,0.55448604,-0.58160996,0.07902057,-0.76063955,0.45364895,-0.45758611,
p, 9773,-0.32862356,0.57013547,-0.31967461,0.07895346,-0.76089573,0.45361590,-0.45720464,
p, 9783,-0.55817163,0.42658538,-0.28528744,0.07893819,-0.76086438,0.45365483,-0.45722109,
p, 9793,-0.67801923,0.57146227,-0.43212584,0.07896482,-0.76117414,0.45394897,-0.45640749,
u, 9797,,,,,,,,-0.00793433,-0.01540193
p, 9803,-0.57062280,0.40201074,-0.60785520,0.07881388,-0.76148289,0.45396486,-0.45590264,
p, 9813,-0.41249341,0.40470257,-0.24608916,0.07874744,-0.76163542,0.45393291,-0.45569143,
p, 9824,-0.50718057,0.48495167,-0.20113906,0.07885477,-0.76163828,0.45393556,-0.45566571,
p, 9835,-0.67164296,0.64073789,-0.45239908,0.07900068,-0.76177990,0.45420966,-0.45512995,
p, 9846,-0.58418882,0.65715331,-0.71016252,0.07899798,-0.76192182,0.45433480,-0.45476800,
p, 9856,-0.54866332,0.37574157,-0.63456124,0.07884250,-0.76206756,0.45434600,-0.45453960,
p, 9866,-0.39456329,0.48699647,-0.27048191,0.07881723,-0.76218307,0.45433927,-0.45435715,
p, 9876,-0.56247789,0.45604554,-0.13620989,0.07892279,-0.76211619,0.45432127,-0.45446911,
p, 9886,-0.67409170,0.59545439,-0.51059455,0.07908132,-0.76229531,0.45456776,-0.45389390,
p, 9897,-0.65123194,0.43603286,-0.64123785,0.07905836,-0.76254487,0.45463774,-0.45340824,
u, 9898,,,,,,,,0.00762006,-0.00808679
p, 9908,-0.51450455,0.51805001,-0.23027164,0.07908595,-0.76280934,0.45482534,-0.45276973,
p, 9919,-0.45558602,0.49222508,-0.16731325,0.07925378,-0.76287425,0.45492631,-0.45252985,
p, 9929,-0.67766023,0.50293320,-0.34457427,0.07938339,-0.76281810,0.45499152,-0.45253649,
p, 9939,-0.70768845,0.64154232,-0.52330029,0.07939754,-0.76277196,0.45505092,-0.45255214,
p, 9949,-0.68389183,0.51865476,-0.61899573,0.07931384,-0.76287496,0.45501345,-0.45243087,
p, 9959,-0.49012402,0.49525878,-0.22881702,0.07924147,-0.76310056,0.45512396,-0.45195144,
p, 9969,-0.60519230,0.47056031,-0.19922449,0.07923892,-0.76311457,0.45522892,-0.45182270,
p, 9979,-0.56548220,0.65466034,-0.55556011,0.07927223,-0.76338899,0.45561326,-0.45096421,
p, 9990,-0.59676695,0.47474533,-0.65576315,0.07918088,-0.76358753,0.45575058,-0.45050538,
u, 9999,,,,,,,,0.00015240,-0.00016174
p, 10001,-0.49952483,0.36061028,-0.36518931,0.07911243,-0.76401788,0.45598683,-0.44954681,
p, 10011,-0.42838943,0.36513484,-0.09342229,0.07923260,-0.76416409,0.45609814,-0.44916475,
p, 10021,-0.64098305,0.29195768,-0.31041354,0.07934156,-0.76410770,0.45618588,-0.44915289,
p, 10031,-0.55189109,0.47215071,-0.42080125,0.07929149,-0.76451069,0.45634314,-0.44831473,
p, 10041,-0.71702373,0.63487142,-0.57229334,0.07917364,-0.76471126,0.45636374,-0.44797283,
p, 10051,-0.36774343,0.40766093,-0.40959790,0.07906253,-0.76509362,0.45638865,-0.44731343,
p, 10061,-0.80171537,0.82702994,-0.36021733,0.07892786,-0.76519156,0.45656633,-0.44698855,
p, 10071,-0.69896102,0.33572567,-0.78819430,0.07881956,-0.76524556,0.45663166,-0.44684881,
p, 10082,-0.91209495,0.25521940,-0.83593065,0.07863092,-0.76540935,0.45669633,-0.44653532,
p, 10093,-0.61614269,0.18614241,-0.67750204,0.07843406,-0.76557922,0.45667377,-0.44630188,
u, 10100,,,,,,,,0.00000305,-0.00000323
p, 10103,-0.40478155,0.35677361,-0.43977946,0.07831182,-0.76557517,0.45671365,-0.44628960,
p, 10113,-0.67326176,0.08576596,-0.53817284,0.07836783,-0.76558924,0.45712417,-0.44583476,
p, 10123,-0.43556124,0.38010985,-0.88331372,0.07817897,-0.76526296,0.45759436,-0.44594550,
p, 10133,-0.62702894,0.39703277,-0.64101291,0.07805838,-0.76549828,0.45800197,-0.44514292,
p, 10143,-0.55162787,0.52342939,-0.25987566,0.07805131,-0.76565862,0.45812404,-0.44474304,
p, 10153,-0.54318607,0.46256614,-0.13683480,0.07816139,-0.76570654,0.45815992,-0.44460469,
p, 10163,-0.54008669,0.64871013,-0.44556889,0.07834361,-0.76581645,0.45862573,-0.44390193,
p, 10174,-0.49617097,0.49426931,-0.60645908,0.07830030,-0.76588243,0.45887399,-0.44353935,
p, 10184,-0.47421312,0.41704890,-0.68690419,0.07827864,-0.76591539,0.45899814,-0.44335806,
p, 10195,-0.51679254,0.40952086,-0.36353266,0.07832739,-0.76593524,0.45896024,-0.44335461,
u, 10200,,,,,,,,0.00000006,-0.00777881
p, 10206,-0.69259274,0.43482482,-0.54433805,0.07859257,-0.76614845,0.45928985,-0.44259647,
p, 10216,-0.65718657,0.67893738,-0.60861003,0.07867854,-0.76619709,0.45955288,-0.44222409,
p, 10226,-0.53550243,0.56323123,-0.64863485,0.07863760,-0.76628971,0.45966125,-0.44195849,
p, 10236,-0.46355200,0.43795717,-0.35799357,0.07853098,-0.76661718,0.45983613,-0.44122645,
p, 10246,-0.72986102,0.44373292,-0.42711997,0.07861507,-0.76685774,0.46014285,-0.44047278,
p, 10256,-0.86301553,0.44662079,-0.46168315,0.07865711,-0.76697803,0.46029621,-0.44009593,
p, 10266,-0.63999623,0.31272691,-0.50183004,0.07852285,-0.76711380,0.46042755,-0.43974587,
p, 10277,-0.46528468,0.41545770,-0.20429179,0.07849845,-0.76723158,0.46039936,-0.43957454,
p, 10288,-0.46477431,0.39285612,-0.12770437,0.07863689,-0.76725882,0.46035093,-0.43955314,
p, 10299,-0.70890391,0.43798232,-0.38041866,0.07878283,-0.76715088,0.46040189,-0.43966216,
u, 10300,,,,,,,,0.00000000,0.00762317
p, 10309,-0.71396428,0.67433631,-0.52594084,0.07883301,-0.76712632,0.46044713,-0.43964863,
p, 10319,-0.64062011,0.45653766,-0.57702684,0.07872771,-0.76718736,0.46044981,-0.43955818,
p, 10330,-0.44521087,0.47566721,-0.24494195,0.07879783,-0.76727080,0.46034089,-0.43951410,
p, 10340,-0.50041461,0.41849005,-0.19043362,0.07884336,-0.76721549,0.46033543,-0.43960819,
p, 10350,-0.69987619,0.51648837,-0.48068434,0.07903682,-0.76741290,0.46068737,-0.43885866,
p, 10360,-0.67739171,0.40979448,-0.52520847,0.07893739,-0.76761305,0.46083587,-0.43837041,
p, 10371,-0.49845538,0.48813850,-0.20243883,0.07883784,-0.76793224,0.46097499,-0.43768224,
p, 10382,-0.45510691,0.52287781,-0.00947595,0.07891433,-0.76807082,0.46099484,-0.43740475,
p, 10392,-0.61920083,0.45974213,-0.29750836,0.07903278,-0.76800156,0.46110463,-0.43738952,
u, 10401,,,,,,,,-0.15557501,-0.00762629
p, 10403,-0.65946919,0.59329724,-0.56147391,0.07902617,-0.76801455,0.46117282,-0.43729624,
p, 10413,-0.64946723,0.43841040,-0.53128624,0.07890980,-0.76807505,0.46115097,-0.43723404,
p, 10423,-0.52508152,0.59483081,-0.17022228,0.07889681,-0.76816660,0.46104813,-0.43718407,
p, 10433,-0.71929735,0.56131613,-0.43463659,0.07918909,-0.76823217,0.46142608,-0.43661630,
p, 10443,-0.62850857,0.66707164,-0.61744189,0.07932568,-0.76828450,0.46168402,-0.43622664,
p, 10454,-0.57961988,0.51944888,-0.64209497,0.07924248,-0.76837999,0.46175158,-0.43600225,
p, 10465,-0.39837623,0.52635652,-0.14822644,0.07929111,-0.76873332,0.46185362,-0.43526125,
p, 10476,-0.46101367,0.39169541,-0.13099036,0.07946286,-0.76883817,0.46191251,-0.43498254,
p, 10486,-0.62139124,0.48082083,-0.42886037,0.07959715,-0.76878351,0.46207052,-0.43488699,
p, 10496,-0.62932968,0.63735259,-0.60800779,0.07961499,-0.76876932,0.46216226,-0.43481147,
u, 10502,,,,,,,,-0.00311150,-0.00015253
p, 10506,-0.56867790,0.47093612,-0.61976165,0.07949341,-0.76884812,0.46216357,-0.43469304,
p, 10516,-0.50421047,0.36917320,-0.32877120,0.07958381,-0.76886988,0.46205854,-0.43474966,
p, 10527,-0.68803358,0.41495615,-0.46793634,0.07975110,-0.76897806,0.46237355,-0.43419194,
p, 10538,-0.68199134,0.68175173,-0.59119165,0.07982002,-0.76900911,0.46259201,-0.43389162,
p, 10549,-0.64632404,0.55799317,-0.65896100,0.07971670,-0.76911271,0.46266529,-0.43364894,
p, 10559,-0.55339426,0.45686066,-0.34560904,0.07961124,-0.76925492,0.46258867,-0.43349797,
p, 10569,-0.43922612,0.55616623,-0.02034633,0.07971713,-0.76933110,0.46248192,-0.43345726,
p, 10579,-0.50116825,0.27643517,-0.41266951,0.07989682,-0.76916879,0.46261555,-0.43356955,
p, 10589,-0.37208223,0.57458842,-0.30051202,0.07957201,-0.76933706,0.46277922,-0.43315560,
p, 10599,-0.45371079,0.51661855,-0.24108395,0.07901055,-0.76971722,0.46285933,-0.43249610,
u, 10603,,,,,,,,-0.00784098,-0.00000305
p, 10609,-0.51178277,0.54719627,-0.31023163,0.07812469,-0.77108777,0.46344414,-0.42956665,
p, 10620,-0.52799374,0.54197735,-0.34229538,0.07744553,-0.77232766,0.46403372,-0.42681235,
p, 10631,-0.53400111,0.51056695,-0.37194574,0.07685935,-0.77347004,0.46466687,-0.42415118,
p, 10642,-0.54347456,0.50394070,-0.35287350,0.07633987,-0.77455389,0.46529084,-0.42157549,
p, 10653,-0.55760306,0.48617750,-0.35373625,0.07574994,-0.77585280,0.46609682,-0.41838580,
p, 10663,-0.55864012,0.48778632,-0.35393876,0.07521928,-0.77701914,0.46680790,-0.41551477,
p, 10673,-0.55239898,0.47621584,-0.35072121,0.07475566,-0.77809143,0.46747112,-0.41283965,
p, 10683,-0.55313122,0.47555757,-0.33415121,0.07405914,-0.77962255,0.46839446,-0.40900159,
p, 10693,-0.54186255,0.47647202,-0.34309337,0.07348920,-0.78087252,0.46914828,-0.40584573,
u, 10704,,,,,,,,-0.00015682,-0.00000006
p, 10704,-0.54339218,0.46964318,-0.33430457,0.07299377,-0.78197193,0.46981621,-0.40304023,
p, 10715,-0.53479576,0.46612957,-0.32910144,0.07240833,-0.78322649,0.47056961,-0.39981627,
p, 10726,-0.52669811,0.46927083,-0.32720941,0.07189267,-0.78431731,0.47122285,-0.39699459,
p, 10736,-0.52567053,0.46548563,-0.32039639,0.07141471,-0.78532171,0.47182459,-0.39437515,
p, 10746,-0.51916766,0.46238759,-0.31409073,0.07095355,-0.78627455,0.47239298,-0.39187407,
p, 10756,-0.52306497,0.46572900,-0.30947304,0.07050827,-0.78720438,0.47295237,-0.38940686,
p, 10766,-0.51808614,0.45453656,-0.30802631,0.06987765,-0.78854430,0.47376925,-0.38578975,
p, 10777,-0.51325452,0.45186239,-0.29542398,0.06933486,-0.78965187,0.47443461,-0.38279432,
p, 10788,-0.50677222,0.44980052,-0.29337239,0.06885006,-0.79063582,0.47502640,-0.38011107,
p, 10799,-0.50831473,0.44831944,-0.29356730,0.06819446,-0.79197252,0.47583693,-0.37640616,
u, 10804,,,,,,,,-0.00000314,-0.00000000
p, 10810,-0.50839168,0.44380999,-0.28300649,0.06776612,-0.79284620,0.47636780,-0.37397307,
p, 10820,-0.51457179,0.44134164,-0.28592768,0.06735781,-0.79369712,0.47689170,-0.37157089,
p, 10830,-0.51212293,0.44206822,-0.28292507,0.06694435,-0.79453301,0.47740164,-0.36919928,
p, 10840,-0.50656497,0.43782336,-0.27332899,0.06654376,-0.79535109,0.47790468,-0.36685342,
p, 10850,-0.49604982,0.43766931,-0.27509224,0.06613608,-0.79616016,0.47839785,-0.36452278,
p, 10860,-0.49483582,0.42850566,-0.26514775,0.06564236,-0.79714346,0.47900099,-0.36165559,
p, 10870,-0.49160433,0.42809713,-0.26091555,0.06519593,-0.79802352,0.47953999,-0.35907251,
p, 10881,-0.48191667,0.41699046,-0.25432861,0.06457667,-0.79920983,0.48026153,-0.35555524,
p, 10892,-0.47865212,0.41464147,-0.25040191,0.06406306,-0.80017227,0.48084307,-0.35268831,
p, 10903,-0.47564656,0.41616017,-0.24974319,0.06359927,-0.80102527,0.48135602,-0.35013095,
u, 10904,,,,,,,,-0.00000006,-0.00000000
p, 10913,-0.47862986,0.41086176,-0.24734627,0.06317754,-0.80181217,0.48183441,-0.34774336,
p, 10923,-0.45998752,0.40387142,-0.24436253,0.06277236,-0.80255789,0.48228621,-0.34546536,
p, 10933,-0.46185869,0.41042417,-0.24123034,0.06216525,-0.80364060,0.48293686,-0.34212434,
p, 10943,-0.46279427,0.41370055,-0.23966424,0.06186170,-0.80418193,0.48326218,-0.34045386,
p, 10953,-0.45929480,0.41333985,-0.23907194,0.06142253,-0.80496472,0.48373529,-0.33800220,
p, 10963,-0.46093249,0.40519440,-0.23361067,0.06082315,-0.80602944,0.48438138,-0.33462161,
p, 10974,-0.46260583,0.39993149,-0.22892693,0.06032433,-0.80689657,0.48490423,-0.33185506,
p, 10985,-0.45475262,0.39002922,-0.22927822,0.05988996,-0.80765915,0.48536783,-0.32939547,
p, 10995,-0.44564566,0.39463007,-0.22219831,0.05946231,-0.80836052,0.48578227,-0.32713735,
u, 11004,,,,,,,,-0.00000000,-0.00000000
p, 11006,-0.44633359,0.39183408,-0.22284690,0.05905081,-0.80903637,0.48618346,-0.32493997,
p, 11016,-0.43681273,0.38949004,-0.21786876,0.05864581,-0.80969226,0.48657161,-0.32279330,
p, 11026,-0.43344086,0.38572401,-0.21183965,0.05826241,-0.81032389,0.48694977,-0.32070193,
p, 11036,-0.43828568,0.38405463,-0.20971011,0.05779795,-0.81110108,0.48742062,-0.31809157,
p, 11046,-0.43230814,0.38379216,-0.20487642,0.05738760,-0.81178796,0.48783815,-0.31576580,
p, 11056,-0.43774983,0.37861788,-0.20113969,0.05700871,-0.81242836,0.48823044,-0.31357503,
p, 11066,-0.42997265,0.37604600,-0.19587624,0.05655420,-0.81318212,0.48869061,-0.31097299,
p, 11076,-0.42473364,0.38024560,-0.18971974,0.05593578,-0.81413805,0.48925892,-0.30766338,
p, 11087,-0.42253375,0.37703532,-0.18831232,0.05543739,-0.81489992,0.48971093,-0.30500868,
p, 11098,-0.42183053,0.37548360,-0.18244351,0.05499837,-0.81556523,0.49010545,-0.30267155,
u, 11105,,,,,,,,-0.00000000,-0.00000000
p, 11108,-0.41751927,0.36747509,-0.18147749,0.05459638,-0.81617081,0.49046487,-0.30052596,
p, 11118,-0.41114458,0.36478308,-0.18516013,0.05421867,-0.81674480,0.49080831,-0.29846981,
p, 11128,-0.40812510,0.35697496,-0.18288158,0.05386949,-0.81729609,0.49114504,-0.29646507,
p, 11138,-0.40948400,0.35975426,-0.18251288,0.05351761,-0.81783694,0.49147266,-0.29448888,
p, 11148,-0.40615040,0.35771832,-0.17539340,0.05300575,-0.81862092,0.49194962,-0.29158425,
p, 11159,-0.39617518,0.35534233,-0.17193285,0.05256526,-0.81926656,0.49233586,-0.28919017,
p, 11170,-0.38886058,0.34740230,-0.16660912,0.05208797,-0.81995714,0.49274847,-0.28660363,
p, 11181,-0.38908666,0.34500396,-0.16821209,0.05167242,-0.82054996,0.49310148,-0.28436911,
p, 11192,-0.38307330,0.33784622,-0.16110189,0.05130289,-0.82108557,0.49342391,-0.28232628,
p, 11202,-0.38859630,0.34392616,-0.15794352,0.05095067,-0.82159257,0.49372923,-0.28037694,
u, 11205,,,,,,,,-0.00000000,-0.00000000
p, 11212,-0.38887060,0.34292257,-0.15552510,0.05060048,-0.82208866,0.49402690,-0.27845675,
p, 11222,-0.38753527,0.34597605,-0.15424722,0.05025721,-0.82256997,0.49431536,-0.27658036,
p, 11232,-0.37700281,0.33395299,-0.15160176,0.04984377,-0.82314944,0.49466419,-0.27429521,
p, 11242,-0.37443739,0.32714802,-0.14830302,0.04948213,-0.82365966,0.49497324,-0.27226478,
p, 11252,-0.37173560,0.32987955,-0.14662313,0.04895344,-0.82436156,0.49538887,-0.26945841,
p, 11263,-0.36578417,0.32165515,-0.14189219,0.04852951,-0.82492638,0.49572498,-0.26718071,
p, 11274,-0.36770654,0.31773371,-0.14491308,0.04816838,-0.82542062,0.49602377,-0.26516074,
p, 11284,-0.36551678,0.31134030,-0.14499682,0.04784231,-0.82587498,0.49630171,-0.26328105,
p, 11294,-0.35982901,0.31542206,-0.13898095,0.04752832,-0.82630694,0.49656546,-0.26148105,
p, 11304,-0.35629848,0.31471634,-0.14140515,0.04721293,-0.82672745,0.49681962,-0.25972167,
u, 11305,,,,,,,,-0.00000000,-0.00000000
p, 11314,-0.35763836,0.30938911,-0.13855079,0.04681767,-0.82724398,0.49713033,-0.25754201,
p, 11324,-0.35836172,0.31205845,-0.12866260,0.04646959,-0.82769990,0.49740589,-0.25560135,
p, 11334,-0.35316157,0.30139971,-0.12479425,0.04615100,-0.82812178,0.49766284,-0.25378752,
p, 11344,-0.35166013,0.29581094,-0.12601864,0.04571354,-0.82871109,0.49802643,-0.25121018,
p, 11355,-0.34538573,0.29178059,-0.12530333,0.04534587,-0.82919097,0.49831951,-0.24910468,
p, 11366,-0.34549865,0.29852396,-0.12557128,0.04501300,-0.82961750,0.49857879,-0.24722193,
p, 11376,-0.34463960,0.30140737,-0.12779571,0.04470676,-0.83001375,0.49882188,-0.24545278,
p, 11386,-0.33359757,0.29990411,-0.12224746,0.04439880,-0.83039099,0.49904823,-0.24376878,
p, 11396,-0.33909339,0.29863369,-0.12131965,0.04410324,-0.83076394,0.49927574,-0.24208096,
u, 11405,,,,,,,,-0.00000000,-0.00000000
p, 11407,-0.34162769,0.29068953,-0.11966556,0.04374720,-0.83121115,0.49954933,-0.24003483,
p, 11417,-0.32943660,0.28429130,-0.11777040,0.04328846,-0.83177680,0.49989447,-0.23741838,
p, 11427,-0.32566038,0.28769922,-0.11508332,0.04291871,-0.83222759,0.50016910,-0.23532009,
p, 11438,-0.31662351,0.27773023,-0.11301499,0.04258887,-0.83261329,0.50040054,-0.23352039,
p, 11449,-0.32127562,0.28254950,-0.10392419,0.04229198,-0.83296728,0.50061560,-0.23184770,
p, 11459,-0.31568998,0.28030521,-0.11303540,0.04198328,-0.83331043,0.50081801,-0.23022991,
p, 11469,-0.31866500,0.27581087,-0.10906897,0.04169388,-0.83363926,0.50101471,-0.22866008,
p, 11479,-0.31104302,0.28116256,-0.10344653,0.04140408,-0.83396029,0.50120521,-0.22712046,
p, 11489,-0.31462491,0.27563682,-0.10177209,0.04107609,-0.83435082,0.50144565,-0.22520448,
p, 11499,-0.30755812,0.27266032,-0.09950818,0.04076827,-0.83469927,0.50165617,-0.22349420,
u, 11506,,,,,,,,-0.00000000,-0.00000000
p, 11509,-0.30191901,0.26056722,-0.10727973,0.04035491,-0.83516884,0.50194186,-0.22115543,
p, 11519,-0.30003023,0.26240182,-0.09293887,0.04001487,-0.83554745,0.50217092,-0.21926053,
p, 11530,-0.30049729,0.26093876,-0.09023927,0.03970761,-0.83588111,0.50237119,-0.21758217,
p, 11541,-0.29822838,0.25543886,-0.09093415,0.03944212,-0.83618581,0.50255930,-0.21602191,
p, 11551,-0.29535443,0.25519136,-0.09260148,0.03916474,-0.83647931,0.50273472,-0.21452421,
p, 11561,-0.28731802,0.25637984,-0.09013161,0.03889275,-0.83676195,0.50290275,-0.21307376,
p, 11571,-0.28983057,0.25569236,-0.09474842,0.03849845,-0.83717299,0.50314891,-0.21093322,
p, 11581,-0.29811352,0.25182384,-0.08644434,0.03819820,-0.83750772,0.50335592,-0.20915864,
p, 11592,-0.28639349,0.24635717,-0.08586286,0.03792791,-0.83780187,0.50353670,-0.20759112,
p, 11603,-0.28617162,0.24860583,-0.08474814,0.03765383,-0.83807719,0.50370049,-0.20612893,
u, 11606,,,,,,,,-0.00000000,-0.00000000
p, 11614,-0.28019366,0.24943262,-0.08454937,0.03733800,-0.83840311,0.50389767,-0.20437030,
p, 11624,-0.27843302,0.24558881,-0.08388540,0.03706068,-0.83868921,0.50407147,-0.20281333,
p, 11634,-0.28074178,0.24917533,-0.07347499,0.03680246,-0.83895326,0.50423169,-0.20136620,
p, 11644,-0.27823406,0.24450648,-0.07552534,0.03655335,-0.83920729,0.50438613,-0.19996244,
p, 11654,-0.27387503,0.23978406,-0.07254508,0.03619074,-0.83956861,0.50460470,-0.19794503,
p, 11664,-0.27220666,0.23588172,-0.07638790,0.03589972,-0.83986384,0.50478530,-0.19627896,
p, 11675,-0.27434033,0.23651691,-0.07460905,0.03563255,-0.84012628,0.50494415,-0.19479224,
p, 11686,-0.27344641,0.23579690,-0.06660903,0.03540578,-0.84036899,0.50509703,-0.19338700,
p, 11697,-0.27011555,0.22836445,-0.06745368,0.03512794,-0.84065700,0.50527698,-0.19170690,
p, 11707,-0.26556620,0.22508311,-0.06493106,0.03488275,-0.84090865,0.50543404,-0.19022909,
u, 11708,,,,,,,,-0.00000000,-0.00000000
p, 11717,-0.26723593,0.22557867,-0.06634767,0.03465641,-0.84114194,0.50558037,-0.18884675,
p, 11727,-0.26349315,0.22282046,-0.06314973,0.03442530,-0.84136581,0.50571769,-0.18752044,
p, 11737,-0.26292640,0.22599611,-0.06790604,0.03418524,-0.84158379,0.50584799,-0.18623111,
p, 11747,-0.25882068,0.22339539,-0.06346352,0.03395705,-0.84179413,0.50597507,-0.18497327,
p, 11757,-0.25395256,0.22138551,-0.06957355,0.03366999,-0.84205389,0.50613129,-0.18340716,
p, 11767,-0.25112942,0.22179963,-0.06191690,0.03341414,-0.84228337,0.50626910,-0.18201512,
p, 11777,-0.24384321,0.21900070,-0.06232289,0.03305836,-0.84259248,0.50645322,-0.18012249,
p, 11788,-0.23712546,0.20835441,-0.05868067,0.03279985,-0.84283763,0.50660539,-0.17858976,
p, 11799,-0.23680308,0.21008083,-0.06106336,0.03256268,-0.84305477,0.50673866,-0.17722714,
p, 11809,-0.24821569,0.20847975,-0.06768683,0.03234246,-0.84325677,0.50686312,-0.17594770,
u, 11810,,,,,,,,-0.00000000,-0.00000000
p, 11819,-0.24524736,0.21179909,-0.06397952,0.03211989,-0.84345126,0.50698090,-0.17471412,
p, 11829,-0.24461770,0.21295521,-0.05779237,0.03190257,-0.84363985,0.50709522,-0.17350826,
p, 11839,-0.24061024,0.21313654,-0.05970368,0.03162690,-0.84386873,0.50723177,-0.17203830,
p, 11849,-0.23849207,0.21028990,-0.05805008,0.03138256,-0.84407163,0.50735319,-0.17072499,
p, 11859,-0.22979596,0.20740935,-0.06147286,0.03115498,-0.84425807,0.50746429,-0.16951147,
p, 11869,-0.22845389,0.20329116,-0.05850742,0.03082908,-0.84452075,0.50762057,-0.16778153,
p, 11880,-0.22041285,0.20321572,-0.05250048,0.03055783,-0.84473312,0.50774556,-0.16637930,
p, 11891,-0.22362500,0.20344502,-0.05131280,0.03032671,-0.84492111,0.50785869,-0.16511846,
p, 11901,-0.22610846,0.19918802,-0.05547208,0.03011919,-0.84509653,0.50796640,-0.16392452,
u, 11910,,,,,,,,-0.00000000,-0.00000000
p, 11912,-0.21364780,0.19829549,-0.05718550,0.02989941,-0.84526414,0.50806493,-0.16279253,
p, 11922,-0.22417924,0.19616312,-0.04424827,0.02969005,-0.84542799,0.50816274,-0.16167171,
p, 11932,-0.21852730,0.20207784,-0.04579052,0.02941708,-0.84562695,0.50827795,-0.16031137,
p, 11942,-0.21438909,0.19193552,-0.04708807,0.02908136,-0.84587824,0.50842607,-0.15856305,
p, 11952,-0.21787417,0.18886328,-0.05129977,0.02882226,-0.84607828,0.50854617,-0.15715297,
p, 11963,-0.21834260,0.18251300,-0.04794298,0.02860379,-0.84625077,0.50865114,-0.15592164,
p, 11974,-0.21293107,0.17675912,-0.04691308,0.02842016,-0.84640551,0.50874835,-0.15479591,
p, 11984,-0.21312447,0.18294591,-0.04752728,0.02822045,-0.84655631,0.50883901,-0.15370715,
p, 11994,-0.20733890,0.17322192,-0.04264639,0.02804935,-0.84669751,0.50892752,-0.15266532,
p, 12004,-0.20784120,0.18136041,-0.04817867,0.02786714,-0.84683812,0.50901353,-0.15162897,
u, 12011,,,,,,,,-0.00000000,-0.00000000
p, 12014,-0.21062532,0.18470487,-0.04266691,0.02764738,-0.84700948,0.50911927,-0.15035003,
p, 12024,-0.20299943,0.18619399,-0.04253554,0.02743223,-0.84716284,0.50921047,-0.14921281,
p, 12034,-0.20089546,0.18004921,-0.04382026,0.02714988,-0.84736896,0.50933504,-0.14765713,
p, 12044,-0.19742496,0.17146076,-0.04221958,0.02691743,-0.84753525,0.50943482,-0.14639682,
p, 12055,-0.19157746,0.17286569,-0.04503557,0.02669842,-0.84768206,0.50952053,-0.14528605,
p, 12066,-0.18675400,0.16709843,-0.04275094,0.02649830,-0.84781575,0.50959873,-0.14426638,
p, 12076,-0.19144523,0.17481203,-0.03863316,0.02630911,-0.84794414,0.50967467,-0.14327540,
p, 12086,-0.19456142,0.16707978,-0.04020586,0.02613177,-0.84806752,0.50974882,-0.14231107,
p, 12096,-0.19322035,0.16989700,-0.04389139,0.02594772,-0.84819078,0.50982177,-0.14134616,
p, 12106,-0.19003211,0.16477486,-0.03824208,0.02573053,-0.84834057,0.50991201,-0.14015487,
u, 12112,,,,,,,,-0.00000000,-0.00000000
p, 12116,-0.18921620,0.16306065,-0.04003321,0.02553040,-0.84847373,0.50999117,-0.13909391,
p, 12126,-0.19140986,0.16660571,-0.03626721,0.02524070,-0.84865284,0.51009434,-0.13766468,
p, 12137,-0.17893399,0.16315210,-0.04073187,0.02500570,-0.84879637,0.51017672,-0.13651383,
p, 12148,-0.17741102,0.15570325,-0.03270267,0.02480115,-0.84892261,0.51024985,-0.13549060,
p, 12158,-0.18231818,0.15627417,-0.03136598,0.02461826,-0.84903991,0.51031935,-0.13452521,
p, 12168,-0.17510532,0.15621631,-0.03289491,0.02443510,-0.84915149,0.51038396,-0.13360709,
p, 12178,-0.17720568,0.15488276,-0.02878418,0.02426286,-0.84925854,0.51044685,-0.13271564,
p, 12188,-0.17589074,0.15850370,-0.02990265,0.02408765,-0.84936529,0.51050913,-0.13182181,
p, 12198,-0.18272534,0.15630111,-0.03073654,0.02386521,-0.84951639,0.51060241,-0.13051739,
p, 12209,-0.17867346,0.15175132,-0.03386192,0.02369353,-0.84963858,0.51067948,-0.12944838,
u, 12212,,,,,,,,-0.00000000,-0.00000000
p, 12220,-0.17746386,0.15113202,-0.03520336,0.02353884,-0.84974766,0.51074827,-0.12848675,
p, 12230,-0.17791955,0.14880057,-0.03491278,0.02338912,-0.84985065,0.51081276,-0.12757416,
p, 12240,-0.17822370,0.14758906,-0.03918491,0.02325070,-0.84994924,0.51087564,-0.12668854,
p, 12250,-0.16751914,0.14812772,-0.03524797,0.02309617,-0.85004574,0.51093411,-0.12583107,
p, 12260,-0.16952160,0.15199050,-0.02831277,0.02291352,-0.85016286,0.51100618,-0.12477499,
p, 12270,-0.15642370,0.15284614,-0.03054432,0.02265786,-0.85030985,0.51109266,-0.12345531,
p, 12280,-0.16585070,0.15370885,-0.02876856,0.02245716,-0.85042858,0.51116365,-0.12237614,
p, 12291,-0.16069940,0.14872332,-0.02206708,0.02227910,-0.85053122,0.51122451,-0.12143929,
p, 12302,-0.16339566,0.13768563,-0.02365256,0.02212802,-0.85062325,0.51128060,-0.12058459,
u, 12312,,,,,,,,-0.00000000,-0.00000000
p, 12312,-0.16025770,0.13630192,-0.01790691,0.02198427,-0.85071015,0.51133358,-0.11977182,
p, 12322,-0.15712470,0.13120028,-0.02631796,0.02184886,-0.85079408,0.51138556,-0.11897641,
p, 12332,-0.15012607,0.12719224,-0.02887553,0.02171476,-0.85087478,0.51143503,-0.11820914,
p, 12342,-0.15488176,0.12957513,-0.02460775,0.02157224,-0.85095388,0.51148176,-0.11746162,
p, 12352,-0.15268198,0.13371152,-0.02528910,0.02138472,-0.85107028,0.51155460,-0.11632706,
p, 12362,-0.15805180,0.13211760,-0.01982381,0.02123675,-0.85116732,0.51161689,-0.11536619,
p, 12372,-0.15556398,0.13206832,-0.02302684,0.02109453,-0.85125268,0.51166987,-0.11452553,
p, 12382,-0.15280183,0.12721428,-0.02007360,0.02097563,-0.85132945,0.51171911,-0.11375542,
p, 12392,-0.14620987,0.12818234,-0.02240405,0.02075956,-0.85144240,0.51178551,-0.11264288,
p, 12403,-0.13727577,0.13112304,-0.02243249,0.02057836,-0.85153377,0.51183844,-0.11174180,
u, 12413,,,,,,,,-0.00000000,-0.00000000
p, 12414,-0.14006427,0.13307403,-0.02618512,0.02041975,-0.85161638,0.51188725,-0.11091603,
p, 12424,-0.13217355,0.12455856,-0.02229361,0.02026833,-0.85169125,0.51193047,-0.11016795,
p, 12434,-0.13745975,0.11352593,-0.02043178,0.02014543,-0.85176122,0.51197380,-0.10944644,
p, 12444,-0.13789034,0.11949185,-0.01837171,0.02000805,-0.85183066,0.51201463,-0.10873830,
p, 12454,-0.14193559,0.12112440,-0.02167518,0.01983836,-0.85192901,0.51207644,-0.10770050,
p, 12464,-0.13587105,0.11757667,-0.02170948,0.01968883,-0.85201102,0.51212698,-0.10683587,
p, 12475,-0.14039189,0.11948016,-0.01840784,0.01954228,-0.85208499,0.51217103,-0.10605998,
p, 12486,-0.13924196,0.12070657,-0.01270581,0.01939324,-0.85215402,0.51221043,-0.10534105,
p, 12496,-0.13405122,0.11698628,-0.01728583,0.01925462,-0.85221815,0.51224720,-0.10466726,
p, 12506,-0.13608688,0.11832285,-0.02529025,0.01911401,-0.85228205,0.51228356,-0.10399289,
u, 12514,,,,,,,,-0.00000000,-0.00000000
p, 12516,-0.13417503,0.12147069,-0.02011430,0.01897630,-0.85234463,0.51231933,-0.10332653,
p, 12527,-0.13515697,0.11707079,-0.02091378,0.01879745,-0.85243469,0.51237375,-0.10233930,
p, 12537,-0.13416785,0.11760980,-0.01702580,0.01865010,-0.85250950,0.51241922,-0.10151223,
p, 12547,-0.13244495,0.11501828,-0.01543276,0.01852247,-0.85257566,0.51245999,-0.10077229,
p, 12557,-0.12432031,0.10990782,-0.01378938,0.01839880,-0.85263491,0.51249534,-0.10011250,
p, 12567,-0.12564436,0.11373840,-0.01795731,0.01826416,-0.85269415,0.51252925,-0.09945799,
p, 12577,-0.13291343,0.11677520,-0.00903969,0.01808505,-0.85277891,0.51257992,-0.09849609,
p, 12588,-0.11999980,0.10910019,-0.01569691,0.01793664,-0.85284722,0.51262033,-0.09771879,
p, 12599,-0.12211080,0.10803978,-0.02036829,0.01780969,-0.85290760,0.51265669,-0.09702258,
p, 12609,-0.12101481,0.10659405,-0.01525769,0.01767764,-0.85296452,0.51268947,-0.09637185,
u, 12615,,,,,,,,-0.00000000,-0.00000000
p, 12619,-0.12148152,0.11035727,-0.01673071,0.01755594,-0.85301840,0.51272100,-0.09574825,
p, 12629,-0.12076884,0.10285472,-0.01467487,0.01746188,-0.85306847,0.51275289,-0.09514751,
p, 12639,-0.12096182,0.10693121,-0.01097665,0.01734076,-0.85314035,0.51280069,-0.09426107,
p, 12649,-0.12499507,0.09834170,-0.01560490,0.01723660,-0.85320014,0.51284015,-0.09352139,
p, 12659,-0.12701169,0.09404695,-0.01791903,0.01718451,-0.85323000,0.51285988,-0.09315155,
p, 12669,-0.11833830,0.09649247,-0.01519273,0.01705551,-0.85329294,0.51289922,-0.09237766,
p, 12679,-0.10338912,0.09514412,-0.01690423,0.01692326,-0.85334635,0.51292986,-0.09173678,
p, 12690,-0.10698478,0.09612553,-0.01802700,0.01674786,-0.85342085,0.51297390,-0.09082267,
p, 12701,-0.11009487,0.09573885,-0.01458296,0.01659714,-0.85348082,0.51300824,-0.09009082,
p, 12712,-0.11196272,0.09542345,-0.01617210,0.01646995,-0.85353279,0.51303858,-0.08944811,
u, 12715,,,,,,,,-0.00000000,-0.00000000
p, 12722,-0.11880179,0.09223687,-0.00954326,0.01637366,-0.85357982,0.51306838,-0.08884470,
p, 12732,-0.11373745,0.09905118,-0.01027242,0.01627032,-0.85362566,0.51309639,-0.08825989,
p, 12742,-0.11379927,0.10218367,-0.01165934,0.01610252,-0.85369241,0.51313531,-0.08741273,
p, 12752,-0.10808524,0.10168235,-0.00957571,0.01596273,-0.85374618,0.51316619,-0.08673006,
p, 12763,-0.11868648,0.09449657,-0.00989955,0.01586200,-0.85379362,0.51319623,-0.08610167,
p, 12774,-0.11431303,0.09978430,-0.01093885,0.01574150,-0.85383946,0.51322263,-0.08551050,
p, 12784,-0.10396285,0.09279986,-0.01673804,0.01562161,-0.85388148,0.51324582,-0.08497345,
p, 12794,-0.10328148,0.09141336,-0.00685840,0.01551616,-0.85392159,0.51326907,-0.08444791,
p, 12804,-0.10522197,0.09548848,-0.00622156,0.01541632,-0.85396159,0.51329285,-0.08391587,
p, 12814,-0.10163748,0.08865306,-0.00776471,0.01532823,-0.85400009,0.51331675,-0.08339202,
u, 12815,,,,,,,,-0.00000000,-0.00000000
p, 12825,-0.09883815,0.08771490,-0.00518698,0.01518241,-0.85405719,0.51335073,-0.08261947,
p, 12835,-0.09743848,0.08724581,-0.00389812,0.01510949,-0.85408568,0.51336771,-0.08223319,
p, 12845,-0.09488471,0.08436388,-0.00471853,0.01495578,-0.85415179,0.51340896,-0.08130863,
p, 12855,-0.09957401,0.09818169,-0.01114833,0.01482087,-0.85420406,0.51344025,-0.08058409,
p, 12866,-0.09644075,0.08940457,-0.01355451,0.01471449,-0.85424626,0.51346588,-0.07999194,
p, 12877,-0.08991501,0.08664870,-0.00638053,0.01460551,-0.85428375,0.51348710,-0.07947468,
p, 12887,-0.09508263,0.08516395,-0.00441860,0.01449270,-0.85432053,0.51350737,-0.07896749,
p, 12897,-0.11578625,0.09968799,-0.00945722,0.01439364,-0.85435796,0.51352978,-0.07843406,
p, 12907,-0.13322577,0.34101221,0.01336831,0.01391111,-0.85440540,0.51358688,-0.07762250,
u, 12915,,,,,,,,0.00777875,-0.00777875
p, 12917,-0.23619907,0.48789656,-0.06712261,0.01324475,-0.85443538,0.51367378,-0.07682668,
p, 12927,-0.39253649,0.58167106,-0.12908895,0.01283232,-0.85464221,0.51340008,-0.07642747,
p, 12937,-0.07872979,0.46293941,-0.34329203,0.01271551,-0.85483927,0.51317239,-0.07577008,
p, 12948,-0.06593045,0.11451109,0.09394847,0.01245865,-0.85495371,0.51298666,-0.07578231,
p, 12959,0.03422685,0.07659606,0.08361822,0.01249141,-0.85505879,0.51283908,-0.07559149,
p, 12969,-0.17165305,0.14505614,0.16453555,0.01245132,-0.85496765,0.51295841,-0.07581969,
p, 12980,-0.24354899,0.17586821,-0.18486784,0.01233146,-0.85490119,0.51306731,-0.07585231,
p, 12990,-0.02960378,0.26327285,-0.17397690,0.01220251,-0.85494572,0.51301289,-0.07573985,
p, 13000,0.05142125,0.01301460,0.12104225,0.01219155,-0.85507464,0.51281863,-0.07560172,
p, 13010,0.02664904,-0.03531704,0.31903553,0.01231836,-0.85508358,0.51278996,-0.07567518,
u, 13016,,,,,,,,0.00015558,-0.00015558
p, 13021,-0.28629705,0.11349078,-0.11811590,0.01224057,-0.85495651,0.51298523,-0.07579976,
p, 13032,-0.10291873,0.21159157,-0.14792514,0.01218133,-0.85499251,0.51294267,-0.07569124,
p, 13043,0.08081908,0.00755207,0.06350386,0.01192756,-0.85510218,0.51277459,-0.07563160,
p, 13053,0.08195159,-0.06718496,0.23097831,0.01190296,-0.85514182,0.51271176,-0.07561338,
p, 13063,-0.11374070,0.06759618,0.05001369,0.01193516,-0.85504019,0.51285756,-0.07576906,
p, 13073,-0.31409538,0.20939624,-0.30191272,0.01183212,-0.85498881,0.51294732,-0.07575702,
p, 13083,-0.11996120,0.28956598,-0.20488092,0.01171330,-0.85505152,0.51286387,-0.07563257,
p, 13093,0.10633257,0.05081937,0.03456058,0.01167321,-0.85514182,0.51272964,-0.07552803,
p, 13103,-0.02676688,0.15010451,0.01343507,0.01161830,-0.85507107,0.51286566,-0.07541437,
p, 13114,-0.27174526,0.09367561,-0.24128357,0.01148830,-0.85502350,0.51294684,-0.07542107,
u, 13116,,,,,,,,0.00000311,-0.00000311
p, 13125,-0.19115523,0.20434666,-0.28167540,0.01136087,-0.85504431,0.51293820,-0.07526307,
p, 13135,0.02083932,0.04859972,-0.05118468,0.01097378,-0.85514891,0.51275635,-0.07537046,
p, 13145,0.00471287,-0.10046363,0.18440674,0.01080990,-0.85519516,0.51266766,-0.07547237,
p, 13155,-0.06160841,-0.01917255,0.23868012,0.01080865,-0.85513049,0.51274633,-0.07567096,
p, 13166,-0.25342232,0.12712485,-0.13443649,0.01059604,-0.85509241,0.51286364,-0.07533507,
p, 13177,0.00475094,0.17518046,-0.01308769,0.01016999,-0.85518563,0.51275647,-0.07506344,
p, 13188,-0.01330294,-0.07763194,0.18401554,0.01002286,-0.85521400,0.51271182,-0.07506630,
p, 13199,-0.13754898,0.06872035,0.10197939,0.00998954,-0.85520625,0.51276398,-0.07480247,
p, 13209,-0.32563332,0.19984937,-0.15828460,0.00984288,-0.85514343,0.51288223,-0.07472906,
u, 13217,,,,,,,,0.00000006,-0.00000006
p, 13219,-0.27696002,0.31318152,-0.31937668,0.00966628,-0.85515684,0.51288950,-0.07454865,
p, 13229,-0.12421304,0.06808215,0.00318398,0.00965300,-0.85526538,0.51273745,-0.07435103,
p, 13239,-0.19443837,0.12332788,0.18297321,0.00973597,-0.85525155,0.51275432,-0.07438301,
p, 13250,-0.29919976,0.06207593,-0.11546072,0.00966417,-0.85519892,0.51288569,-0.07409084,
p, 13261,-0.29141507,0.14143530,-0.36277646,0.00949871,-0.85517377,0.51297230,-0.07380246,
p, 13272,0.05074938,-0.03088300,-0.04100737,0.00894638,-0.85523546,0.51282978,-0.07414445,
p, 13282,0.00723199,-0.15028343,0.20338090,0.00883015,-0.85532463,0.51266569,-0.07426562,
p, 13292,-0.07907902,-0.05591564,0.25230232,0.00884677,-0.85528237,0.51271123,-0.07443665,
p, 13302,-0.21089572,-0.00343695,-0.05383389,0.00873884,-0.85517871,0.51285887,-0.07462347,
p, 13312,-0.10855302,0.12533383,-0.24959609,0.00858458,-0.85512102,0.51295596,-0.07463512,
u, 13318,,,,,,,,0.00000000,-0.00000000
p, 13322,-0.03614907,-0.07820223,-0.03033851,0.00832178,-0.85527563,0.51269913,-0.07465764,
p, 13333,-0.15538839,0.01979018,0.20253551,0.00826601,-0.85528910,0.51265365,-0.07482190,
p, 13344,-0.30788827,0.15789008,0.02183813,0.00819293,-0.85519183,0.51279879,-0.07494757,
p, 13354,-0.27716649,0.20942295,-0.16007093,0.00801835,-0.85510820,0.51292533,-0.07505450,
p, 13364,-0.05243975,0.28116411,-0.16795661,0.00797170,-0.85518563,0.51281995,-0.07489718,
p, 13374,-0.05913308,0.01850411,0.18163908,0.00773393,-0.85530680,0.51263946,-0.07477361,
p, 13384,0.14182018,0.36304235,0.60838240,0.00777542,-0.85528195,0.51269072,-0.07470209,
p, 13394,0.26450598,0.39773822,0.02426109,0.00826743,-0.85530281,0.51271534,-0.07423742,
p, 13404,-0.14614362,0.60697305,-0.68107623,0.00799892,-0.85525823,0.51284516,-0.07388371,
p, 13415,-0.08911642,0.07912892,-0.14008340,0.00788272,-0.85538298,0.51271772,-0.07333329,
u, 13419,,,,,,,,0.00000000,-0.00000000
p, 13426,-0.02497356,-0.11502996,-0.07385640,0.00824326,-0.85536480,0.51282477,-0.07275367,
p, 13437,-0.24949393,0.22895353,-0.52903938,0.00847480,-0.85528022,0.51299775,-0.07250294,
p, 13448,-0.03953426,0.28250656,-0.31775761,0.00859999,-0.85521257,0.51320130,-0.07184164,
p, 13458,-0.05872282,0.21967582,-0.46600771,0.00869820,-0.85529947,0.51310754,-0.07146502,
p, 13468,-0.06460159,-0.12389622,0.08680511,0.00846951,-0.85534978,0.51304197,-0.07136256,
p, 13478,-0.14019570,-0.02094774,-0.15120804,0.00850116,-0.85522693,0.51324737,-0.07135479,
p, 13488,-0.29383749,-0.00112023,-0.39301735,0.00841629,-0.85515714,0.51336420,-0.07136144,
p, 13499,-0.10196635,0.17786090,-0.34541920,0.00826179,-0.85518926,0.51333416,-0.07121089,
p, 13510,0.03800608,0.02900156,-0.02399744,0.00818629,-0.85527110,0.51321733,-0.07107866,
p, 13520,-0.06629359,-0.05504878,0.20286793,0.00822143,-0.85531998,0.51314121,-0.07103624,
u, 13521,,,,,,,,0.00000000,-0.00000000
p, 13530,-0.19077772,0.01502474,0.15643427,0.00834543,-0.85523880,0.51330090,-0.07084550,
p, 13540,-0.29706427,0.12420396,-0.15267886,0.00834571,-0.85518354,0.51340282,-0.07077391,
p, 13550,-0.03760837,0.15635552,-0.15724915,0.00824353,-0.85523188,0.51336586,-0.07046857,
p, 13560,0.04056776,-0.01129215,0.09845367,0.00811517,-0.85530949,0.51322472,-0.07056947,
p, 13570,-0.15116388,0.05607573,0.04738815,0.00833312,-0.85524929,0.51334006,-0.07043512,
p, 13580,-0.35057583,0.15649398,-0.20789620,0.00829231,-0.85515940,0.51348913,-0.07044487,
p, 13591,-0.16768141,0.16712943,-0.21831273,0.00819988,-0.85517770,0.51347661,-0.07032491,
p, 13602,0.18881860,-0.06333165,-0.08523821,0.00798003,-0.85528898,0.51335073,-0.06991288,
p, 13612,0.05991681,0.03916547,0.18570578,0.00817604,-0.85527134,0.51331842,-0.07034086,
u, 13622,,,,,,,,0.14779626,-0.00777875
p, 13623,-0.16576609,0.15855978,0.05896312,0.00842189,-0.85520947,0.51338726,-0.07056212,
p, 13633,-0.30637854,0.18195629,-0.19899592,0.00842113,-0.85513484,0.51349163,-0.07070823,
p, 13643,-0.05651721,0.15898657,-0.26593322,0.00834769,-0.85515231,0.51346833,-0.07067550,
p, 13653,0.09213324,0.01412463,0.05067292,0.00806117,-0.85519147,0.51339483,-0.07076854,
p, 13664,0.08840976,0.07288873,0.00824662,0.00801169,-0.85513926,0.51345366,-0.07097822,
p, 13675,-0.17825301,0.03449124,-0.30154839,0.00788062,-0.85510534,0.51349401,-0.07110936,
p, 13686,-0.17706290,0.17359480,-0.35948390,0.00765104,-0.85512102,0.51347673,-0.07107095,
p, 13696,0.06320958,0.00967185,-0.20014295,0.00751815,-0.85522676,0.51334178,-0.07078667,
p, 13706,-0.04979322,-0.01413838,0.10901971,0.00747755,-0.85528678,0.51326132,-0.07064948,
p, 13716,-0.12682532,0.05150930,0.12071011,0.00754782,-0.85520476,0.51337540,-0.07080591,
u, 13722,,,,,,,,0.15075219,-0.01571308
p, 13726,-0.20975208,-0.01639012,-0.18104662,0.00752431,-0.85514414,0.51347250,-0.07083702,
p, 13736,0.00099707,0.02168165,-0.19491631,0.00732272,-0.85522759,0.51335275,-0.07071828,
p, 13746,-0.05063367,-0.05134637,0.31545994,0.00731099,-0.85525864,0.51329994,-0.07072690,
p, 13757,-0.16104376,0.01550266,0.27055347,0.00740916,-0.85521364,0.51335359,-0.07087203,
p, 13768,-0.29393893,0.15335070,-0.14716345,0.00740879,-0.85514075,0.51346433,-0.07094914,
p, 13778,-0.29543748,0.20870203,-0.36379626,0.00724552,-0.85514230,0.51347315,-0.07088334,
p, 13788,0.00725715,0.06132123,-0.23085596,0.00712448,-0.85522461,0.51336461,-0.07068823,
p, 13798,-0.09016720,-0.02424051,0.13682270,0.00714536,-0.85524559,0.51331669,-0.07077999,
p, 13808,-0.12444456,0.23932934,0.23518229,0.00736290,-0.85530531,0.51319385,-0.07092616,
p, 13818,-0.30428770,0.12836981,-0.03671336,0.00752458,-0.85535127,0.51309204,-0.07109161,
u, 13822,,,,,,,,0.00301504,0.00746449
p, 13828,-0.22293700,0.24020267,-0.24684942,0.00756775,-0.85540926,0.51299739,-0.07107246,
p, 13838,-0.08291168,0.07533205,0.16962034,0.00751634,-0.85551435,0.51284969,-0.07087845,
p, 13849,-0.13087997,0.13946503,0.23719969,0.00761028,-0.85552251,0.51283264,-0.07089348,
p, 13860,-0.23480491,0.07398972,0.03321929,0.00763494,-0.85550785,0.51286817,-0.07081138,
p, 13870,-0.25541821,0.09755699,-0.31604722,0.00753736,-0.85556841,0.51279259,-0.07063703,
p, 13880,-0.09192725,0.08470532,-0.12662865,0.00729075,-0.85569203,0.51261669,-0.07044046,
p, 13890,-0.06528888,-0.17526819,-0.07779492,0.00714134,-0.85583651,0.51239979,-0.07027817,
p, 13900,-0.06951730,0.08923053,0.48256403,0.00700728,-0.85588461,0.51235855,-0.07000637,
p, 13910,0.02012721,-0.04451895,0.56396723,0.00735608,-0.85590029,0.51232839,-0.06999982,
p, 13920,-0.00183062,-0.38617396,0.07558560,0.00755456,-0.85594296,0.51224279,-0.07008351,
u, 13922,,,,,,,,-0.00771845,0.00014929
p, 13930,-0.03684976,-0.14688337,0.11341536,0.00756667,-0.85597688,0.51219809,-0.06999541,
p, 13941,-0.07849111,-0.05310935,0.02008659,0.00771131,-0.85600996,0.51217735,-0.06972615,
p, 13952,-0.08239741,0.01423970,-0.00478825,0.00774126,-0.85604000,0.51217365,-0.06937937,
p, 13962,-0.09523007,0.03645487,0.01579435,0.00774912,-0.85606694,0.51218021,-0.06899625,
p, 13973,-0.09088133,0.04771505,0.02275161,0.00773826,-0.85610116,0.51219004,-0.06849718,
p, 13983,-0.08375549,0.05725138,0.01310005,0.00771028,-0.85612994,0.51220191,-0.06805018,
p, 13993,-0.08839417,0.05178090,-0.00387936,0.00768573,-0.85615599,0.51221585,-0.06761869,
p, 14003,-0.08277893,0.06121455,-0.00005522,0.00760481,-0.85619324,0.51223552,-0.06700350,
p, 14013,-0.09399414,0.06640439,-0.01076980,0.00754833,-0.85622483,0.51225388,-0.06646326,
u, 14022,,,,,,,,-0.00015437,0.00000299
p, 14024,-0.08758545,0.05877593,-0.00192115,0.00750457,-0.85625100,0.51226974,-0.06600800,
p, 14035,-0.08772278,0.06034805,-0.00647663,0.00746581,-0.85627496,0.51228458,-0.06558535,
p, 14045,-0.09549713,0.06018806,-0.00186502,0.00744577,-0.85629785,0.51230025,-0.06516519,
p, 14055,-0.08562851,0.05863560,-0.00585347,0.00741185,-0.85632086,0.51231498,-0.06475073,
p, 14065,-0.08427238,0.05348772,-0.00877085,0.00738323,-0.85634303,0.51232958,-0.06434369,
p, 14075,-0.08194637,0.06276223,-0.00942846,0.00732599,-0.85636985,0.51234543,-0.06386471,
p, 14085,-0.08193541,0.06130360,-0.00286791,0.00727466,-0.85639411,0.51235986,-0.06342807,
p, 14095,-0.07501769,0.06034540,-0.01097070,0.00719122,-0.85642684,0.51237822,-0.06284381,
p, 14105,-0.07783020,0.05989682,-0.01107007,0.00714074,-0.85645318,0.51239443,-0.06235684,
p, 14116,-0.07798523,0.05578917,-0.00204077,0.00709069,-0.85647583,0.51240778,-0.06194033,
u, 14122,,,,,,,,-0.00000309,0.00000006
p, 14127,-0.08237335,0.05719146,-0.00456042,0.00706093,-0.85649705,0.51242167,-0.06153473,
p, 14137,-0.07745682,0.05886917,0.00277045,0.00701218,-0.85651779,0.51243371,-0.06115141,
p, 14148,-0.07676094,0.05696907,-0.00643491,0.00697114,-0.85654151,0.51244873,-0.06069549,
p, 14158,-0.08195195,0.05749149,-0.00366759,0.00693223,-0.85656375,0.51246274,-0.06026633,
p, 14168,-0.07402651,0.06458864,-0.00980651,0.00687545,-0.85658473,0.51247454,-0.05987359,
p, 14178,-0.06735536,0.05573182,-0.00575775,0.00682947,-0.85660368,0.51248550,-0.05951252,
p, 14189,-0.07565461,0.06374695,-0.00632736,0.00674373,-0.85663307,0.51250160,-0.05895715,
p, 14200,-0.08485489,0.05511261,-0.01267754,0.00670117,-0.85665643,0.51251626,-0.05849284,
p, 14211,-0.08306161,0.05934037,-0.00970333,0.00664718,-0.85667807,0.51252878,-0.05807137,
p, 14221,-0.07749577,0.05834145,-0.00451597,0.00661431,-0.85669672,0.51254070,-0.05769429,
u, 14222,,,,,,,,-0.00000006,0.00000000
p, 14231,-0.07420931,0.06053516,-0.00529449,0.00656019,-0.85671532,0.51255095,-0.05733269,
p, 14241,-0.06938462,0.05803858,-0.00394424,0.00652360,-0.85673189,0.51256096,-0.05699891,
p, 14251,-0.06875756,0.05237287,0.00777062,0.00649762,-0.85675156,0.51257414,-0.05658607,
p, 14261,-0.07157208,0.05353781,0.00613598,0.00644804,-0.85677749,0.51259047,-0.05604731,
p, 14271,-0.07004202,0.04710124,0.00462439,0.00641082,-0.85679787,0.51260346,-0.05562018,
p, 14282,-0.07412165,0.04028951,0.00610400,0.00639079,-0.85681534,0.51261544,-0.05524228,
p, 14293,-0.07589445,0.05083781,-0.00044226,0.00635977,-0.85683215,0.51262617,-0.05488402,
p, 14303,-0.06823592,0.04324880,-0.00466144,0.00633612,-0.85684741,0.51263618,-0.05455526,
p, 14313,-0.06658866,0.04636653,-0.01064676,0.00631684,-0.85686183,0.51264596,-0.05423839,
u, 14323,,,,,,,,-0.00000000,0.00000000
p, 14324,-0.06916012,0.05096952,-0.00819966,0.00627886,-0.85688353,0.51266003,-0.05376351,
p, 14335,-0.07216246,0.05234023,0.00014211,0.00623670,-0.85690176,0.51267111,-0.05337108,
p, 14345,-0.06804839,0.04600654,-0.00566625,0.00619745,-0.85691798,0.51268095,-0.05302051,
p, 14355,-0.06501479,0.04288547,-0.00023913,0.00615685,-0.85693324,0.51268995,-0.05269111,
p, 14365,-0.06374214,0.05407365,-0.00140130,0.00611561,-0.85694790,0.51269853,-0.05237301,
p, 14375,-0.06211399,0.05028359,0.00394565,0.00607469,-0.85696852,0.51271164,-0.05190820,
p, 14386,-0.06667864,0.04551991,0.00518480,0.00603646,-0.85698557,0.51272225,-0.05152588,
p, 14397,-0.07210428,0.04443507,0.00070794,0.00601556,-0.85700071,0.51273251,-0.05117305,
p, 14407,-0.06043568,0.04785993,0.00582425,0.00598246,-0.85701489,0.51274127,-0.05085123,
p, 14417,-0.06946345,0.04061545,-0.00110857,0.00596533,-0.85702837,0.51275057,-0.05053172,
u, 14424,,,,,,,,-0.00000000,0.00000000
p, 14427,-0.06930814,0.04730053,-0.00233956,0.00594440,-0.85704225,0.51275992,-0.05020211,
p, 14437,-0.06244795,0.04128942,-0.00607548,0.00590780,-0.85706067,0.51277184,-0.04976819,
p, 14447,-0.06415244,0.04032092,0.00038786,0.00588120,-0.85707575,0.51278180,-0.04940773,
p, 14457,-0.06500469,0.03983667,0.00361953,0.00586790,-0.85708332,0.51278675,-0.04922750,
p, 14467,-0.06585043,0.04159344,-0.00055535,0.00581407,-0.85710227,0.51279807,-0.04878364,
p, 14478,-0.06480846,0.04914755,0.00349125,0.00577972,-0.85711753,0.51280773,-0.04841625,
p, 14489,-0.05943517,0.04981944,-0.00178679,0.00574251,-0.85713100,0.51281583,-0.04809467,
p, 14499,-0.05702319,0.04462408,-0.00074081,0.00571037,-0.85714316,0.51282328,-0.04780195,
p, 14509,-0.05754144,0.04330813,0.00396309,0.00567579,-0.85715538,0.51283062,-0.04750735,
p, 14519,-0.05923489,0.04710573,0.00585728,0.00564945,-0.85716790,0.51283872,-0.04719671,
u, 14525,,,,,,,,-0.00000000,0.00000000
p, 14529,-0.06187453,0.03361604,0.00636187,0.00563089,-0.85718322,0.51284945,-0.04680265,
p, 14539,-0.05467994,0.03721665,0.01103158,0.00561372,-0.85719597,0.51285827,-0.04647306,
p, 14550,-0.06037525,0.03693413,0.00655339,0.00560550,-0.85720718,0.51286644,-0.04617701,
p, 14561,-0.05243494,0.03998196,-0.00394834,0.00572512,-0.85885119,0.51012892,-0.04582510,
p, 14572,-0.05288983,0.04034621,0.00058931,0.00575854,-0.85967898,0.50876307,-0.04551055,
p, 14582,-0.05462790,0.03404334,-0.00517562,0.00591481,-0.86174035,0.50527591,-0.04521452,
p, 14592,-0.05358195,0.03855182,0.00417183,0.00612108,-0.86438406,0.50074661,-0.04491784,
p, 14602,-0.05942190,0.03455759,0.00105595,0.00621899,-0.86571085,0.49848551,-0.04463498,
p, 14612,-0.05359858,0.03825963,0.00220644,0.00631490,-0.86714768,0.49601036,-0.04435666,
p, 14622,-0.05803403,0.03544146,-0.00082702,0.00662408,-0.87085140,0.48946804,-0.04390478,
u, 14626,,,,,,,,-0.00000000,0.00000000
p, 14632,-0.06025176,0.03403237,-0.00234374,0.00677867,-0.87270319,0.48619688,-0.04367884,
p, 14642,-0.05010726,0.03310658,-0.00526886,0.00701586,-0.87577593,0.48064789,-0.04336489,
p, 14652,-0.04980339,0.03307856,-0.00107803,0.00733490,-0.88004500,0.47276932,-0.04293476,
p, 14663,-0.05094082,0.03414029,0.00421410,0.00759001,-0.88348091,0.46634829,-0.04258636,
p, 14674,-0.05301252,0.02942977,-0.00850544,0.00783073,-0.88645470,0.46071035,-0.04227461,
p, 14684,-0.04895194,0.02816550,-0.00312357,0.00805289,-0.88916582,0.45549437,-0.04197259,
p, 14694,-0.04576198,0.02374157,-0.00798574,0.00825995,-0.89172506,0.45049694,-0.04168611,
p, 14704,-0.04470106,0.03015844,-0.00355799,0.00844495,-0.89419419,0.44560653,-0.04139681,
p, 14714,-0.04511664,0.03025409,-0.00644056,0.00867439,-0.89716041,0.43961859,-0.04105347,
p, 14724,-0.04685031,0.02869974,0.00043420,0.00887025,-0.89971811,0.43439081,-0.04074614,
u, 14727,,,,,,,,-0.00000000,0.00000000
p, 14734,-0.04459672,0.03000539,-0.00269733,0.00905324,-0.90203750,0.42958623,-0.04045936,
p, 14744,-0.04019692,0.03013178,-0.01228159,0.00928770,-0.90528113,0.42271146,-0.04005349,
p, 14755,-0.04661061,0.03176664,-0.00900182,0.00947455,-0.90793300,0.41701990,-0.03971797,
p, 14766,-0.04551447,0.03272139,-0.00881152,0.00964788,-0.91026205,0.41194782,-0.03943648,
p, 14777,-0.04226560,0.03740257,-0.00136926,0.00983442,-0.91285044,0.40620410,-0.03910080,
p, 14787,-0.04096922,0.03204510,-0.01398266,0.00998901,-0.91504836,0.40126389,-0.03881039,
p, 14797,-0.03964965,0.03386007,0.00072199,0.01012080,-0.91702867,0.39675337,-0.03852990,
p, 14807,-0.04125579,0.03345530,-0.00240848,0.01026065,-0.91887379,0.39249253,-0.03826913,
p, 14817,-0.04684250,0.03570196,-0.00296663,0.01044587,-0.92142367,0.38647825,-0.03789002,
u, 14827,,,,,,,,-0.00000000,0.00000000
p, 14827,-0.04315086,0.03109561,-0.00445115,0.01059061,-0.92347604,0.38158125,-0.03759209,
p, 14838,-0.04161785,0.02309328,-0.00298088,0.01072981,-0.92526370,0.37726068,-0.03732519,
p, 14849,-0.03706717,0.02630189,0.00118748,0.01084402,-0.92690909,0.37323004,-0.03708988,
p, 14859,-0.04194820,0.02924134,-0.00354902,0.01094573,-0.92845750,0.36938971,-0.03685126,
p, 14869,-0.04858488,0.02888001,0.00068978,0.01104490,-0.92992753,0.36570174,-0.03659441,
p, 14879,-0.04563949,0.02517456,-0.00401149,0.01114021,-0.93133640,0.36212465,-0.03635131,
p, 14889,-0.04665397,0.03676483,-0.00829237,0.01121235,-0.93301380,0.35780007,-0.03606598,
p, 14899,-0.04043209,0.03123032,-0.00773200,0.01128929,-0.93447757,0.35398504,-0.03581987,
p, 14909,-0.03824430,0.02554100,-0.00230197,0.01139594,-0.93646497,0.34870481,-0.03547680,
p, 14919,-0.04285720,0.03234753,0.00482283,0.01148425,-0.93806136,0.34441936,-0.03519122,
u, 14927,,,,,,,,-0.00000000,0.00000000
p, 14930,-0.04472877,0.02516119,0.00254111,0.01157428,-0.93943679,0.34068447,-0.03492515,
p, 14941,-0.03480030,0.03338595,0.00629833,0.01163064,-0.94068503,0.33725399,-0.03469016,
p, 14951,-0.04237116,0.02837358,0.00184454,0.01169571,-0.94183874,0.33404696,-0.03446113,
p, 14961,-0.03040952,0.02478402,0.00206668,0.01175307,-0.94293517,0.33096349,-0.03425647,
p, 14971,-0.02860960,0.02601048,-0.00170561,0.01182155,-0.94424391,0.32723048,-0.03399716,
p, 14981,-0.03562133,0.02357195,0.00008561,0.01187364,-0.94537520,0.32397333,-0.03376339,
p, 14991,-0.03410705,0.02833413,0.00245369,0.01191260,-0.94643402,0.32089210,-0.03354509,
p, 15001,-0.03308288,0.03055501,-0.00341945,0.01199510,-0.94789851,0.31655386,-0.03324509,
p, 15012,-0.03875824,0.03275645,0.00049517,0.01204877,-0.94907659,0.31303382,-0.03298366,
p, 15023,-0.03950546,0.03323919,0.00173532,0.01207751,-0.95009995,0.30994490,-0.03275065,
u, 15027,,,,,,,,-0.00000000,0.00000000
p, 15033,-0.03779625,0.02315798,0.00358372,0.01212324,-0.95103049,0.30710411,-0.03254490,
p, 15043,-0.03534710,0.03750367,0.00501147,0.01214186,-0.95189822,0.30442941,-0.03234352,
p, 15053,-0.03400809,0.03625367,0.00231500,0.01214902,-0.95271528,0.30188659,-0.03215358,
p, 15063,-0.03513911,0.03576599,-0.00121524,0.01216514,-0.95350587,0.29940364,-0.03195214,
p, 15073,-0.03324033,0.03381317,0.00265776,0.01217453,-0.95462930,0.29582196,-0.03166031,
p, 15083,-0.03229094,0.03283676,0.00459426,0.01217923,-0.95519102,0.29403114,-0.03151440,
p, 15094,-0.02830673,0.02240746,0.00705024,0.01223788,-0.95632350,0.29034305,-0.03121643,
p, 15105,-0.03179252,0.03123089,0.00414310,0.01226095,-0.95721984,0.28740248,-0.03097002,
p, 15116,-0.02659267,0.02968405,-0.00682432,0.01227676,-0.95798957,0.28485286,-0.03076798,
p, 15126,-0.02972242,0.02588176,0.00650605,0.01228988,-0.95869762,0.28248537,-0.03057787,
u, 15127,,,,,,,,-0.00000000,0.00000000
p, 15136,-0.03213416,0.03120565,0.00390152,0.01230027,-0.95938015,0.28018129,-0.03039256,
p, 15146,-0.02603107,0.02733683,-0.00177238,0.01231604,-0.96032465,0.27694535,-0.03013597,
p, 15157,-0.03333261,0.02725637,-0.00460171,0.01232868,-0.96109426,0.27428907,-0.02991189,
p, 15168,-0.02785100,0.02639979,-0.00234663,0.01233738,-0.96175969,0.27197111,-0.02972781,
p, 15178,-0.02476687,0.02613172,-0.00243216,0.01234237,-0.96235240,0.26988858,-0.02956351,
p, 15188,-0.03138826,0.02494483,-0.00197139,0.01235287,-0.96289933,0.26795197,-0.02939436,
p, 15199,-0.02230118,0.02806690,0.00462191,0.01234285,-0.96363091,0.26532930,-0.02917137,
p, 15209,-0.01797127,0.02859796,0.00132676,0.01232715,-0.96411180,0.26359826,-0.02903469,
p, 15219,-0.02959263,0.02926022,0.00408135,0.01231846,-0.96458137,0.26189506,-0.02888085,
u, 15227,,,,,,,,-0.00000000,0.00000000
p, 15229,-0.02065569,0.02924040,0.00083523,0.01230007,-0.96504408,0.26020390,-0.02873133,
p, 15239,-0.02802804,0.02498092,0.00092878,0.01228224,-0.96550363,0.25851259,-0.02857379,
p, 15249,-0.02983738,0.02005119,0.00587363,0.01227365,-0.96602404,0.25658119,-0.02838281,
p, 15259,-0.02844561,0.02798519,0.00713298,0.01225505,-0.96650618,0.25477874,-0.02821693,
p, 15269,-0.03305978,0.02059202,0.00704550,0.01227179,-0.96718156,0.25222492,-0.02795007,
p, 15280,-0.03086552,0.02240386,0.00334727,0.01226157,-0.96772021,0.25017568,-0.02774045,
p, 15291,-0.02623598,0.01616104,0.00492376,0.01226053,-0.96818405,0.24839738,-0.02756345,
p, 15301,-0.02358552,0.02417091,0.00304171,0.01224203,-0.96859813,0.24679907,-0.02740760,
p, 15311,-0.02218400,0.01712086,0.00258897,0.01222956,-0.96898234,0.24530357,-0.02727511,
p, 15322,-0.02761727,0.02392603,0.00360619,0.01220430,-0.96951693,0.24320298,-0.02706663,
u, 15327,,,,,,,,-0.00000000,0.00000000
p, 15332,-0.02905216,0.02484143,0.00924176,0.01218436,-0.96986634,0.24182640,-0.02692512,
p, 15342,-0.02813692,0.02438361,0.01036581,0.01214513,-0.97038591,0.23975298,-0.02673238,
p, 15352,-0.02998338,0.02651218,0.00336711,0.01211869,-0.97080898,0.23805700,-0.02655389,
p, 15363,-0.03155511,0.02603532,0.00109609,0.01209793,-0.97117692,0.23657145,-0.02640422,
p, 15374,-0.02731320,0.03205300,-0.00052007,0.01207348,-0.97151113,0.23521663,-0.02624179,
p, 15384,-0.03531645,0.02449513,0.00502714,0.01205799,-0.97180891,0.23400357,-0.02608321,
p, 15394,-0.02775191,0.02549982,0.00194899,0.01202816,-0.97209442,0.23283327,-0.02594161,
p, 15404,-0.02655601,0.02517819,0.00310310,0.01199778,-0.97238600,0.23162985,-0.02580455,
p, 15414,-0.02579021,0.01684630,0.00247471,0.01197038,-0.97277313,0.23001730,-0.02562788,
p, 15424,-0.02800894,0.01916534,-0.00124983,0.01193080,-0.97310913,0.22861052,-0.02547843,
u, 15427,,,,,,,,-0.00000000,0.00000000
p, 15434,-0.02525020,0.02115646,0.00227426,0.01189204,-0.97354865,0.22675304,-0.02527361,
p, 15444,-0.02061307,0.01091392,-0.00646175,0.01189127,-0.97388589,0.22531894,-0.02512119,
p, 15455,-0.02190322,0.02058605,-0.00081236,0.01186004,-0.97415102,0.22418784,-0.02500176,
p, 15466,-0.02122840,0.01733496,-0.00261870,0.01185226,-0.97440004,0.22311793,-0.02488615,
p, 15476,-0.02494220,0.01348163,0.00355820,0.01185703,-0.97462869,0.22213109,-0.02476866,
p, 15486,-0.02209177,0.01392770,-0.00213478,0.01184346,-0.97482681,0.22127368,-0.02466496,
p, 15497,-0.01463933,0.01676762,-0.00985645,0.01184998,-0.97517967,0.21972647,-0.02451281,
p, 15507,-0.01965640,0.02082735,-0.00858271,0.01184091,-0.97540879,0.21872108,-0.02440559,
p, 15517,-0.02279054,0.02108720,-0.00500852,0.01182900,-0.97562206,0.21778300,-0.02428768,
u, 15527,,,,,,,,-0.00000000,0.00000000
p, 15527,-0.01883393,0.01641060,-0.00028410,0.01177703,-0.97590148,0.21654706,-0.02412862,
p, 15538,-0.01800003,0.01572026,-0.00328536,0.01173763,-0.97613180,0.21552354,-0.02399925,
p, 15549,-0.02187843,0.01846499,0.00181343,0.01169833,-0.97634459,0.21457447,-0.02387249,
p, 15559,-0.01935444,0.01417634,-0.00100826,0.01167481,-0.97654909,0.21365590,-0.02376293,
p, 15569,-0.02529459,0.01198624,-0.00045835,0.01166498,-0.97675073,0.21274696,-0.02363906,
p, 15579,-0.02548757,0.02055763,0.00714845,0.01163091,-0.97694492,0.21186921,-0.02351498,
p, 15589,-0.02618678,0.01670277,0.00754151,0.01160055,-0.97716415,0.21087216,-0.02337794,
p, 15599,-0.03303663,0.01837641,0.00921051,0.01157169,-0.97734576,0.21004508,-0.02325151,
p, 15609,-0.02760382,0.01696256,0.01517960,0.01155248,-0.97754097,0.20914793,-0.02314408,
p, 15620,-0.02252231,0.02120711,0.01695107,0.01149535,-0.97785163,0.20770901,-0.02297707,
u, 15627,,,,,,,,-0.00000000,0.00000000
p, 15631,-0.02014940,0.01936973,0.00466084,0.01145851,-0.97808111,0.20664293,-0.02284915,
p, 15642,-0.02595910,0.01472789,0.00559580,0.01142551,-0.97826481,0.20578766,-0.02273157,
p, 15652,-0.02024273,0.01212469,0.00118810,0.01140441,-0.97842777,0.20502530,-0.02262747,
p, 15662,-0.01973440,0.00855716,0.00460711,0.01137945,-0.97858369,0.20429362,-0.02252003,
p, 15673,-0.02343990,0.01327363,0.01218362,0.01135732,-0.97880667,0.20324075,-0.02235630,
p, 15683,-0.02128721,0.02138444,0.00719044,0.01131355,-0.97901005,0.20227718,-0.02221118,
p, 15693,-0.01428283,0.01951943,0.00103937,0.01127220,-0.97917008,0.20151675,-0.02209598,
p, 15704,-0.01367217,0.01948719,0.00235837,0.01122581,-0.97930765,0.20086041,-0.02200679,
p, 15715,-0.01863876,0.01991358,0.00326964,0.01119902,-0.97944188,0.20021781,-0.02190664,
p, 15725,-0.01934440,0.02130170,0.00079559,0.01117690,-0.97958565,0.19952467,-0.02181447,
u, 15727,,,,,,,,-0.00000000,0.00000000
p, 15735,-0.01842312,0.01657126,0.00444900,0.01115205,-0.97971803,0.19888422,-0.02173251,
p, 15745,-0.01836683,0.01563274,0.00090462,0.01113595,-0.97984350,0.19827612,-0.02164418,
p, 15755,-0.01389075,0.01437765,0.00963810,0.01111166,-0.97996676,0.19767611,-0.02156286,
p, 15765,-0.01812244,0.02266886,0.00619997,0.01106844,-0.98012602,0.19689968,-0.02144679,
p, 15775,-0.01155603,0.02036001,0.00253541,0.01102552,-0.98038185,0.19563694,-0.02130317,
p, 15785,-0.01796979,0.00818110,0.00559357,0.01099551,-0.98056000,0.19475669,-0.02119102,
p, 15796,-0.01574454,0.01568723,0.00468125,0.01095707,-0.98069590,0.19408530,-0.02109279,
p, 15807,-0.01941554,0.01790679,-0.00089424,0.01091587,-0.98081291,0.19350794,-0.02098569,
p, 15817,-0.01288923,0.01481277,0.00071255,0.01087981,-0.98092079,0.19297323,-0.02089371,
u, 15827,,,,,,,,-0.00000000,0.00000000
p, 15827,-0.00396506,0.00029579,0.00494154,0.01085617,-0.98101711,0.19249260,-0.02082156,u, 6682,,,,,,,,0.00000000,0.00000000
p, 6682,-0.20156665,0.16974756,-1.95222235,0.13655250,-0.12067965,0.07668848,-0.98025668,
p, 6693,-0.19866845,0.17487012,-1.95203280,0.13569757,-0.12163379,0.07744022,-0.98019862,
p, 6703,-0.19930218,0.17037421,-1.95183885,0.13483608,-0.12257165,0.07819305,-0.98014104,
p, 6713,-0.20145774,0.17664829,-1.94652343,0.13400748,-0.12350066,0.07892190,-0.98007977,
p, 6723,-0.20310771,0.17064531,-1.94114196,0.13307026,-0.12466824,0.07983027,-0.97998565,
p, 6733,-0.19997305,0.16908577,-1.94540930,0.13223103,-0.12574568,0.08063260,-0.97989595,
p, 6743,-0.20198390,0.17198338,-1.94961810,0.13143015,-0.12676287,0.08140451,-0.97980887,
p, 6753,-0.20337842,0.17663652,-1.94745004,0.13065499,-0.12774274,0.08217137,-0.97972143,
p, 6763,-0.20583808,0.18534890,-1.94928813,0.12945472,-0.12917380,0.08331186,-0.97959554,
p, 6774,-0.20892185,0.18216725,-1.94616354,0.12853831,-0.13036765,0.08425589,-0.97947752,
u, 6783,,,,,,,,0.00000000,0.00000000
p, 6785,-0.21285936,0.18865594,-1.95104814,0.12770468,-0.13146129,0.08510463,-0.97936743,
p, 6795,-0.21768914,0.19312100,-1.94822609,0.12687832,-0.13249137,0.08590010,-0.97926688,
p, 6805,-0.21348935,0.19809249,-1.95152998,0.12601778,-0.13350993,0.08669978,-0.97916931,
p, 6815,-0.21940032,0.20084526,-1.94374442,0.12525362,-0.13452113,0.08747175,-0.97906029,
p, 6826,-0.22909255,0.19359279,-1.93950069,0.12423175,-0.13603668,0.08866385,-0.97887272,
p, 6837,-0.23290107,0.19515455,-1.94087315,0.12339345,-0.13729072,0.08965202,-0.97871387,
p, 6848,-0.22698520,0.19616431,-1.94261217,0.12249766,-0.13870651,0.09074485,-0.97852576,
p, 6859,-0.23328936,0.19847736,-1.94351983,0.12174788,-0.13993835,0.09170210,-0.97835505,
p, 6869,-0.23082620,0.19900064,-1.93864071,0.12114452,-0.14109337,0.09257729,-0.97818208,
p, 6879,-0.23640004,0.20157400,-1.93110466,0.12055467,-0.14219320,0.09343400,-0.97801447,
u, 6884,,,,,,,,0.00000000,0.00000000
p, 6889,-0.23504420,0.20424922,-1.93495846,0.11951058,-0.14379293,0.09469392,-0.97778618,
p, 6899,-0.24218640,0.20666257,-1.93030882,0.11868689,-0.14512932,0.09574080,-0.97758734,
p, 6910,-0.24552099,0.20117827,-1.93970275,0.11794734,-0.14633548,0.09670504,-0.97740257,
p, 6921,-0.24892780,0.20706496,-1.93659484,0.11725451,-0.14748141,0.09759685,-0.97722542,
p, 6932,-0.25137889,0.20935218,-1.92746496,0.11649024,-0.14886735,0.09868610,-0.97699690,
p, 6942,-0.25360388,0.21135792,-1.92873645,0.11588819,-0.15011907,0.09965248,-0.97677910,
p, 6952,-0.25767657,0.21618311,-1.92812860,0.11522615,-0.15129012,0.10059345,-0.97658044,
p, 6962,-0.25782084,0.21700117,-1.92462039,0.11451349,-0.15243086,0.10150047,-0.97639310,
p, 6972,-0.25476491,0.21706687,-1.92745912,0.11391205,-0.15356702,0.10238922,-0.97619277,
p, 6982,-0.26144618,0.22034222,-1.92290473,0.11294316,-0.15527947,0.10374220,-0.97588992,
u, 6985,,,,,,,,0.00000000,0.00000000
p, 6993,-0.26585492,0.22773245,-1.91666019,0.11215588,-0.15671971,0.10485823,-0.97563136,
p, 7004,-0.26303917,0.22890987,-1.92785835,0.11144827,-0.15802886,0.10587265,-0.97539210,
p, 7014,-0.26682690,0.22795743,-1.92239475,0.11075079,-0.15925387,0.10684519,-0.97516656,
p, 7025,-0.26988041,0.23565993,-1.91410875,0.11000526,-0.16106072,0.10822919,-0.97480023,
p, 7036,-0.27030092,0.23408668,-1.91010308,0.10941901,-0.16257006,0.10937834,-0.97448766,
p, 7046,-0.27547029,0.23498616,-1.91213620,0.10887852,-0.16391364,0.11043116,-0.97420490,
p, 7056,-0.27719283,0.23563425,-1.91522789,0.10830878,-0.16518266,0.11143498,-0.97394013,
p, 7066,-0.28221214,0.23828527,-1.91064739,0.10738359,-0.16702318,0.11289007,-0.97355938,
p, 7076,-0.28533214,0.24809466,-1.90602255,0.10659140,-0.16854437,0.11409487,-0.97324401,
u, 7086,,,,,,,,0.00000000,0.00000000
p, 7087,-0.28895971,0.24687296,-1.90649486,0.10591920,-0.16990733,0.11518353,-0.97295272,
p, 7098,-0.29505360,0.24185231,-1.90924871,0.10531402,-0.17120688,0.11622238,-0.97266746,
p, 7108,-0.30286127,0.24298884,-1.90557504,0.10475426,-0.17246497,0.11723319,-0.97238469,
p, 7118,-0.29031613,0.24575436,-1.90331089,0.10416622,-0.17371869,0.11824419,-0.97210234,
p, 7128,-0.28958249,0.24858671,-1.90124798,0.10349388,-0.17496608,0.11926728,-0.97182548,
p, 7138,-0.29830229,0.25926498,-1.89762259,0.10262401,-0.17684337,0.12077896,-0.97138929,
p, 7148,-0.30479079,0.25657034,-1.90119624,0.10191502,-0.17842329,0.12204944,-0.97101629,
p, 7159,-0.30140510,0.25304866,-1.89272916,0.10124233,-0.17986326,0.12321246,-0.97067451,
p, 7170,-0.30794436,0.25814664,-1.90022206,0.10058587,-0.18121898,0.12432174,-0.97034955,
p, 7180,-0.31187776,0.25878066,-1.89810145,0.10000385,-0.18254426,0.12540245,-0.97002250,
u, 7187,,,,,,,,0.00000000,0.00000000
p, 7190,-0.31382155,0.26204261,-1.89775062,0.09941604,-0.18386963,0.12646443,-0.96969485,
p, 7201,-0.31546485,0.26350576,-1.89774311,0.09848091,-0.18585038,0.12807995,-0.96919835,
p, 7211,-0.31992573,0.26992121,-1.89548874,0.09772475,-0.18750982,0.12943748,-0.96877491,
p, 7221,-0.32336923,0.27000087,-1.89502525,0.09703141,-0.18900990,0.13066548,-0.96838880,
p, 7231,-0.32510626,0.27815077,-1.88811779,0.09646860,-0.19045940,0.13180792,-0.96800667,
p, 7241,-0.32719547,0.28379738,-1.88839483,0.09572546,-0.19256657,0.13345507,-0.96743584,
p, 7252,-0.33216920,0.27887684,-1.88426852,0.09510317,-0.19431785,0.13482583,-0.96695721,
p, 7263,-0.33224517,0.28282526,-1.88135087,0.09456614,-0.19590420,0.13605607,-0.96651804,
p, 7273,-0.33111587,0.28462398,-1.88341689,0.09408629,-0.19742164,0.13721183,-0.96609318,
p, 7283,-0.33789068,0.28682798,-1.88210762,0.09363346,-0.19888753,0.13834465,-0.96567535,
u, 7287,,,,,,,,0.00000000,0.00000000
p, 7293,-0.33669284,0.28924987,-1.88055277,0.09318050,-0.20034459,0.13947645,-0.96525526,
p, 7303,-0.34538651,0.30565858,-1.87474751,0.09273127,-0.20177597,0.14058942,-0.96483898,
p, 7313,-0.33835793,0.30335724,-1.86803782,0.09200972,-0.20394033,0.14231253,-0.96419770,
p, 7324,-0.34341908,0.30424362,-1.86694121,0.09142037,-0.20573896,0.14374223,-0.96365958,
p, 7335,-0.34992456,0.30676964,-1.87275589,0.09097639,-0.20738797,0.14502662,-0.96315622,
p, 7345,-0.35201764,0.30884898,-1.86446333,0.09046869,-0.20893690,0.14624667,-0.96268523,
p, 7355,-0.36142600,0.30514318,-1.86666465,0.08992232,-0.21044147,0.14746600,-0.96222293,
p, 7365,-0.35864574,0.31194964,-1.85164440,0.08936040,-0.21193007,0.14867431,-0.96176255,
p, 7375,-0.36258093,0.31851906,-1.85407543,0.08846343,-0.21416761,0.15049514,-0.96106374,
p, 7385,-0.37220079,0.32000324,-1.86109686,0.08782323,-0.21605039,0.15200810,-0.96046299,
u, 7387,,,,,,,,0.00000000,0.00000000
p, 7396,-0.37393609,0.31819713,-1.84843326,0.08724901,-0.21774703,0.15337408,-0.95991564,
p, 7406,-0.37480372,0.31729406,-1.84210145,0.08696191,-0.21859536,0.15405706,-0.95964193,
p, 7416,-0.37774763,0.31778857,-1.84476447,0.08581677,-0.22127643,0.15631726,-0.95875907,
p, 7427,-0.37957817,0.32477260,-1.83768833,0.08482623,-0.22336048,0.15810354,-0.95807087,
p, 7438,-0.38181332,0.32234418,-1.83646202,0.08412797,-0.22517717,0.15963127,-0.95745498,
p, 7448,-0.38890469,0.32863730,-1.84057903,0.08360124,-0.22687262,0.16102198,-0.95686901,
p, 7458,-0.39039809,0.33511028,-1.83393240,0.08313856,-0.22852227,0.16233411,-0.95629573,
p, 7468,-0.39519599,0.34390861,-1.83604121,0.08268686,-0.23014790,0.16363445,-0.95572376,
p, 7478,-0.40737581,0.34556118,-1.83253324,0.08195801,-0.23254125,0.16561827,-0.95486218,
u, 7487,,,,,,,,0.00000000,0.00000000
p, 7488,-0.40946031,0.34216076,-1.83228230,0.08133513,-0.23453480,0.16725552,-0.95414251,
p, 7499,-0.40458214,0.34892920,-1.83142436,0.08076621,-0.23635337,0.16872546,-0.95348394,
p, 7510,-0.40353161,0.35125291,-1.83099532,0.08029869,-0.23808540,0.17008898,-0.95285082,
p, 7520,-0.41220739,0.35651940,-1.83612907,0.07989341,-0.23978442,0.17141500,-0.95222157,
p, 7530,-0.41304338,0.35687909,-1.82158327,0.07945232,-0.24145070,0.17272985,-0.95159996,
p, 7540,-0.40997475,0.35775322,-1.81743073,0.07899252,-0.24311081,0.17405972,-0.95097315,
p, 7550,-0.41692433,0.35692379,-1.80820572,0.07852952,-0.24477255,0.17539406,-0.95033991,
p, 7561,-0.42710537,0.36597717,-1.80340242,0.07776199,-0.24726117,0.17744529,-0.94937396,
p, 7572,-0.42241499,0.36753601,-1.80525804,0.07710542,-0.24936514,0.17916161,-0.94855458,
p, 7582,-0.42682183,0.36289093,-1.80466759,0.07628654,-0.25211778,0.18140824,-0.94746238,
u, 7587,,,,,,,,0.00000000,0.00000000
p, 7593,-0.44188839,0.36155260,-1.79298162,0.07558572,-0.25431955,0.18325779,-0.94657481,
p, 7604,-0.44694212,0.36843652,-1.79135013,0.07496685,-0.25627419,0.18489331,-0.94578004,
p, 7614,-0.44991910,0.37601361,-1.78911531,0.07444148,-0.25811645,0.18641199,-0.94502342,
p, 7624,-0.44845504,0.37856621,-1.78630424,0.07387868,-0.25989729,0.18789780,-0.94428575,
p, 7634,-0.44744834,0.37764522,-1.78489864,0.07336053,-0.26165959,0.18936074,-0.94354749,
p, 7644,-0.45639783,0.37548339,-1.78102970,0.07296993,-0.26341361,0.19079235,-0.94280136,
p, 7654,-0.45328131,0.38633484,-1.77707338,0.07247081,-0.26609898,0.19289246,-0.94165403,
p, 7665,-0.45734590,0.38764068,-1.77987885,0.07201019,-0.26834992,0.19468173,-0.94068205,
p, 7676,-0.46788499,0.38466966,-1.77703965,0.07157560,-0.27036449,0.19632551,-0.93979728,
u, 7687,,,,,,,,0.00000000,0.00000000
p, 7687,-0.47069025,0.38662499,-1.77503252,0.07116032,-0.27227181,0.19788334,-0.93895197,
p, 7697,-0.46840024,0.39125714,-1.76245522,0.07076703,-0.27412325,0.19938052,-0.93812662,
p, 7707,-0.46797240,0.38997215,-1.76747334,0.07041591,-0.27597147,0.20088127,-0.93729103,
p, 7717,-0.46899444,0.39861462,-1.76696110,0.06986028,-0.27874693,0.20310147,-0.93602788,
p, 7727,-0.46950546,0.40293586,-1.76670504,0.06958246,-0.28013468,0.20421156,-0.93539631,
p, 7737,-0.48073202,0.40623325,-1.75431657,0.06910346,-0.28220069,0.20590849,-0.93443763,
p, 7747,-0.47853282,0.40939257,-1.74252236,0.06857604,-0.28511965,0.20824064,-0.93306810,
p, 7758,-0.48478794,0.41319239,-1.74170637,0.06812476,-0.28753996,0.21016693,-0.93192631,
p, 7769,-0.48792315,0.41267377,-1.73613334,0.06765982,-0.28968343,0.21191132,-0.93090218,
p, 7779,-0.49778390,0.41783133,-1.73889339,0.06713824,-0.29167631,0.21359530,-0.92993343,
u, 7788,,,,,,,,0.00000000,0.00000000
p, 7790,-0.49443638,0.42069238,-1.73139286,0.06659743,-0.29361066,0.21524316,-0.92898393,
p, 7800,-0.50129229,0.42215344,-1.73072481,0.06607814,-0.29551035,0.21686709,-0.92804104,
p, 7810,-0.50082922,0.42624092,-1.72615647,0.06556772,-0.29791123,0.21884999,-0.92684150,
p, 7820,-0.50987506,0.43030643,-1.72282708,0.06504887,-0.30106390,0.22138777,-0.92525011,
p, 7830,-0.51051462,0.44528627,-1.71364737,0.06457598,-0.30361399,0.22344410,-0.92395568,
p, 7841,-0.52349919,0.44159913,-1.70934749,0.06414066,-0.30584300,0.22528893,-0.92280412,
p, 7852,-0.52267492,0.44466889,-1.70476377,0.06372719,-0.30793482,0.22701427,-0.92171526,
p, 7862,-0.51910418,0.44133621,-1.70734715,0.06335059,-0.30997673,0.22866771,-0.92064857,
p, 7872,-0.52637494,0.44800881,-1.70931780,0.06299988,-0.31200337,0.23030053,-0.91958106,
p, 7882,-0.52757651,0.44891894,-1.69267917,0.06261279,-0.31400239,0.23192985,-0.91851729,
u, 7889,,,,,,,,0.00000000,0.00000000
p, 7892,-0.53306007,0.45648462,-1.68673265,0.06221411,-0.31598637,0.23356673,-0.91744888,
p, 7902,-0.53919697,0.45272961,-1.68246245,0.06182202,-0.31795970,0.23520966,-0.91637337,
p, 7912,-0.54370737,0.45153111,-1.66512191,0.06132292,-0.32148659,0.23804188,-0.91443396,
p, 7922,-0.54742742,0.46170458,-1.66945219,0.06096295,-0.32428667,0.24026893,-0.91288602,
p, 7933,-0.55709231,0.46436518,-1.66166854,0.06069763,-0.32672569,0.24217749,-0.91153109,
p, 7944,-0.55215913,0.47494993,-1.65783012,0.06043425,-0.32897994,0.24392736,-0.91027242,
p, 7954,-0.55212629,0.47246033,-1.65664339,0.06012362,-0.33113390,0.24564652,-0.90905023,
p, 7964,-0.55355948,0.47269562,-1.65286088,0.05972128,-0.33321586,0.24737567,-0.90784711,
p, 7974,-0.55085814,0.47230208,-1.64289010,0.05927223,-0.33527502,0.24909227,-0.90664876,
p, 7984,-0.55974609,0.47809440,-1.63621855,0.05874905,-0.33785364,0.25123334,-0.90513104,
u, 7990,,,,,,,,0.00000000,0.00000000
p, 7994,-0.56074917,0.47709194,-1.63524032,0.05835165,-0.34019142,0.25314552,-0.90374744,
p, 8004,-0.56511122,0.48050457,-1.62683189,0.05794004,-0.34238243,0.25497615,-0.90243167,
p, 8014,-0.56528568,0.48073843,-1.62105608,0.05751218,-0.34449446,0.25676355,-0.90114826,
p, 8024,-0.57481813,0.48354089,-1.62441659,0.05693932,-0.34764615,0.25939831,-0.89921165,
p, 8035,-0.57784486,0.49320477,-1.60979283,0.05648970,-0.35028666,0.26156464,-0.89758682,
p, 8046,-0.58221161,0.49785361,-1.60693645,0.05610207,-0.35321206,0.26389673,-0.89577889,
p, 8057,-0.59360367,0.50187176,-1.59964132,0.05576085,-0.35573870,0.26592898,-0.89419973,
p, 8067,-0.59264684,0.49847922,-1.59693980,0.05542585,-0.35806751,0.26781958,-0.89272749,
p, 8077,-0.59209216,0.49897259,-1.58600652,0.05508512,-0.36029649,0.26966059,-0.89129782,
p, 8087,-0.59808618,0.50430810,-1.58827615,0.05474138,-0.36247665,0.27146563,-0.88988686,
u, 8091,,,,,,,,0.00000000,0.00000000
p, 8097,-0.60263956,0.51439923,-1.58239186,0.05419178,-0.36570293,0.27412504,-0.88777637,
p, 8107,-0.61114949,0.51208246,-1.57370472,0.05376051,-0.36838481,0.27634829,-0.88600338,
p, 8117,-0.61540449,0.51092404,-1.56936121,0.05354487,-0.36972576,0.27745992,-0.88511688,
p, 8127,-0.60847586,0.51908052,-1.55845380,0.05313918,-0.37313375,0.28018850,-0.88284057,
p, 8138,-0.61537230,0.51283616,-1.55524313,0.05280588,-0.37592173,0.28243941,-0.88095891,
p, 8149,-0.61823303,0.52521694,-1.54242253,0.05249422,-0.37841964,0.28443018,-0.87926805,
p, 8159,-0.61977780,0.52667707,-1.54404604,0.05218216,-0.38076508,0.28632584,-0.87765920,
p, 8169,-0.60991484,0.53023767,-1.53432918,0.05189410,-0.38304359,0.28815722,-0.87608528,
p, 8179,-0.61897564,0.53192639,-1.53746641,0.05166653,-0.38529462,0.28995246,-0.87451875,
p, 8189,-0.63048697,0.52694190,-1.52273870,0.05139086,-0.38866201,0.29260325,-0.87215167,
u, 8192,,,,,,,,0.00000000,0.00000000
p, 8199,-0.62583613,0.53431445,-1.51378024,0.05120692,-0.39149952,0.29477671,-0.87015975,
p, 8210,-0.63210142,0.53639090,-1.50625682,0.05098833,-0.39401889,0.29675028,-0.86836493,
p, 8221,-0.63518065,0.53948909,-1.49775732,0.05069326,-0.39695233,0.29905438,-0.86625147,
p, 8232,-0.63849795,0.54527247,-1.50157952,0.05046994,-0.39957821,0.30108050,-0.86435461,
p, 8242,-0.63872224,0.55360395,-1.48374569,0.05030181,-0.40203902,0.30295882,-0.86256689,
p, 8252,-0.64932477,0.54517353,-1.48458672,0.05017994,-0.40441445,0.30477652,-0.86082280,
p, 8262,-0.65096396,0.55493540,-1.47645473,0.05008229,-0.40675458,0.30654332,-0.85909772,
p, 8272,-0.65030348,0.55547523,-1.47283888,0.04991960,-0.40905339,0.30833006,-0.85737514,
p, 8282,-0.64966804,0.55680561,-1.46723914,0.04959356,-0.41245812,0.31103665,-0.85477328,
u, 8292,,,,,,,,0.00000000,0.00000000
p, 8292,-0.65965760,0.55993509,-1.45353687,0.04926140,-0.41586292,0.31374323,-0.85214543,
p, 8302,-0.66288239,0.56028676,-1.44950104,0.04899572,-0.41870052,0.31599349,-0.84993941,
p, 8313,-0.66540265,0.56607783,-1.44219589,0.04876909,-0.42126849,0.31801468,-0.84793049,
p, 8324,-0.66485465,0.56701261,-1.43520927,0.04852479,-0.42367619,0.31994665,-0.84601843,
p, 8334,-0.66912776,0.57328594,-1.42788601,0.04827670,-0.42601612,0.32180944,-0.84415072,
p, 8344,-0.67188990,0.57321829,-1.42327070,0.04806102,-0.42833918,0.32364038,-0.84228641,
p, 8354,-0.67923719,0.57435179,-1.40855765,0.04790891,-0.43065473,0.32542396,-0.84042573,
p, 8364,-0.68373477,0.57535338,-1.40390956,0.04779892,-0.43297201,0.32718587,-0.83855557,
p, 8375,-0.69076723,0.57522857,-1.39565754,0.04779272,-0.43651521,0.32975695,-0.83569801,
p, 8386,-0.68603611,0.58043808,-1.38026285,0.04779481,-0.43947116,0.33188748,-0.83330226,
u, 8392,,,,,,,,0.00000000,0.00000000
p, 8397,-0.68860674,0.58045650,-1.38111806,0.04771559,-0.44269043,0.33428192,-0.83063912,
p, 8408,-0.69408059,0.58738554,-1.37047541,0.04763274,-0.44547546,0.33633053,-0.82832718,
p, 8418,-0.69267476,0.58877486,-1.36721396,0.04755365,-0.44804507,0.33823738,-0.82616919,
p, 8428,-0.68419749,0.58708155,-1.35908306,0.04744151,-0.45051652,0.34005645,-0.82408428,
p, 8438,-0.69089937,0.59419233,-1.34758663,0.04715607,-0.45405167,0.34279299,-0.82101244,
p, 8448,-0.70442796,0.59416187,-1.34190702,0.04691750,-0.45695424,0.34507343,-0.81845784,
p, 8459,-0.70893395,0.59075922,-1.33494735,0.04673535,-0.45957577,0.34709626,-0.81614482,
p, 8470,-0.70077282,0.58264160,-1.33127677,0.04664630,-0.46265852,0.34938627,-0.81342447,
p, 8481,-0.69880557,0.58978271,-1.31601381,0.04659621,-0.46540236,0.35136026,-0.81101024,
p, 8491,-0.70352876,0.59336090,-1.30741334,0.04656280,-0.46794581,0.35320348,-0.80874717,
u, 8492,,,,,,,,0.00000000,0.00000000
p, 8501,-0.70624131,0.60023117,-1.29773438,0.04652613,-0.47039616,0.35496601,-0.80655503,
p, 8511,-0.70619380,0.60706902,-1.29236841,0.04646003,-0.47277927,0.35673070,-0.80438519,
p, 8521,-0.71360105,0.60082912,-1.27662396,0.04644099,-0.47635639,0.35927719,-0.80112630,
p, 8532,-0.71343660,0.60324812,-1.27449667,0.04640259,-0.47933072,0.36141416,-0.79838932,
p, 8543,-0.71749711,0.60315299,-1.26527715,0.04635147,-0.48198479,0.36334908,-0.79591525,
p, 8554,-0.72098458,0.60592067,-1.25395358,0.04628629,-0.48448455,0.36517704,-0.79356384,
p, 8564,-0.71760136,0.60713667,-1.24868083,0.04629324,-0.48694974,0.36686939,-0.79127258,
p, 8574,-0.71500182,0.61542749,-1.23849905,0.04635544,-0.49000657,0.36890900,-0.78842473,
p, 8584,-0.71753204,0.61478162,-1.24076295,0.04638349,-0.49272931,0.37078005,-0.78584498,
u, 8592,,,,,,,,0.00000000,0.00000000
p, 8594,-0.72040695,0.61377966,-1.22295105,0.04646970,-0.49530393,0.37248641,-0.78341234,
p, 8604,-0.72391963,0.61893970,-1.21899652,0.04658643,-0.49780428,0.37412065,-0.78103971,
p, 8614,-0.72026670,0.61545432,-1.21099210,0.04668717,-0.50144589,0.37655449,-0.77751642,
p, 8625,-0.72606963,0.61371928,-1.19772780,0.04677184,-0.50446111,0.37857842,-0.77457356,
p, 8636,-0.72753680,0.61064684,-1.18941712,0.04690925,-0.50718427,0.38035357,-0.77191603,
p, 8647,-0.73322183,0.62269098,-1.18171418,0.04702488,-0.51035500,0.38240951,-0.76879460,
p, 8657,-0.73336351,0.61890161,-1.17588663,0.04710134,-0.51312488,0.38425058,-0.76602542,
p, 8667,-0.73412865,0.61692303,-1.15567708,0.04716475,-0.51567543,0.38595110,-0.76345241,
p, 8677,-0.74227798,0.62195337,-1.15456736,0.04725557,-0.51815271,0.38757628,-0.76094413,
p, 8687,-0.73791450,0.61883801,-1.14634490,0.04734665,-0.52177107,0.38995391,-0.75723177,
u, 8693,,,,,,,,0.00000000,0.00000000
p, 8697,-0.73344398,0.62248361,-1.13415420,0.04747266,-0.52479064,0.39186633,-0.75414515,
p, 8708,-0.73230731,0.61973637,-1.13264418,0.04763097,-0.52751958,0.39354309,-0.75135654,
p, 8719,-0.73403543,0.62672460,-1.11888862,0.04774442,-0.53006601,0.39514333,-0.74871588,
p, 8729,-0.73643303,0.62441272,-1.11582553,0.04785411,-0.53253078,0.39670256,-0.74613297,
p, 8739,-0.73820400,0.63006985,-1.10326958,0.04797096,-0.53496647,0.39818335,-0.74359143,
p, 8750,-0.74059248,0.63532454,-1.09586239,0.04825822,-0.53862399,0.40030313,-0.73977327,
p, 8760,-0.74532676,0.63464832,-1.08517027,0.04842378,-0.54103863,0.40172908,-0.73722965,
p, 8770,-0.75206554,0.63623285,-1.08435607,0.04859991,-0.54345143,0.40314871,-0.73466724,
p, 8781,-0.74290746,0.63465238,-1.07232177,0.04896482,-0.54711962,0.40513664,-0.73080611,
p, 8792,-0.74752951,0.63205397,-1.05914068,0.04923214,-0.55015022,0.40680897,-0.72757840,
u, 8793,,,,,,,,0.00000000,0.00000000
p, 8803,-0.74655986,0.63283759,-1.04707980,0.04945156,-0.55285668,0.40833026,-0.72465760,
p, 8813,-0.74255025,0.63137543,-1.04748094,0.04965057,-0.55542898,0.40976337,-0.72186565,
p, 8824,-0.74534434,0.62227494,-1.03451324,0.04996950,-0.55912328,0.41178918,-0.71781683,
p, 8835,-0.74093544,0.62266088,-1.02500045,0.05023138,-0.56216055,0.41344810,-0.71446711,
p, 8845,-0.73802906,0.62360919,-1.02348661,0.05046430,-0.56489646,0.41492575,-0.71143389,
p, 8855,-0.74170280,0.61973459,-1.01115584,0.05070253,-0.56745553,0.41629893,-0.70857620,
p, 8865,-0.73936641,0.62243593,-1.00388420,0.05094220,-0.56993705,0.41760772,-0.70579422,
p, 8875,-0.74227995,0.62885255,-0.98981136,0.05128645,-0.57356000,0.41947168,-0.70170593,
p, 8886,-0.74194384,0.62956607,-0.97535920,0.05160413,-0.57657200,0.42098135,-0.69830358,
u, 8893,,,,,,,,0.00000000,0.00000000
p, 8897,-0.74315667,0.63837618,-0.96413529,0.05185852,-0.57926261,0.42232922,-0.69524151,
p, 8907,-0.74193966,0.63389301,-0.95745522,0.05208630,-0.58178389,0.42359886,-0.69234437,
p, 8917,-0.74096495,0.63396311,-0.95448136,0.05229332,-0.58423173,0.42482117,-0.68951517,
p, 8927,-0.74448299,0.63750768,-0.93951333,0.05247278,-0.58661097,0.42601883,-0.68673873,
p, 8937,-0.73955107,0.63818896,-0.92555195,0.05274349,-0.59013480,0.42774379,-0.68260217,
p, 8947,-0.74612594,0.63298303,-0.92676520,0.05305282,-0.59310907,0.42912292,-0.67912686,
p, 8957,-0.74392784,0.62760293,-0.91472232,0.05344108,-0.59639239,0.43055126,-0.67530334,
p, 8967,-0.74790996,0.62737721,-0.90691561,0.05374265,-0.59919173,0.43181467,-0.67199033,
p, 8978,-0.74646020,0.62724912,-0.89322376,0.05407968,-0.60180175,0.43288881,-0.66893709,
p, 8989,-0.74150097,0.62424010,-0.88656092,0.05445550,-0.60432947,0.43386590,-0.66599131,
u, 8993,,,,,,,,0.00000000,0.00000000
p, 9000,-0.73528296,0.62439120,-0.87832379,0.05482313,-0.60679376,0.43479067,-0.66311330,
p, 9010,-0.74129868,0.61979753,-0.88144553,0.05516092,-0.60920268,0.43575591,-0.66023803,
p, 9020,-0.73660088,0.62596929,-0.87587291,0.05540605,-0.61154014,0.43677211,-0.65737987,
p, 9031,-0.73611355,0.62714022,-0.85668337,0.05574692,-0.61499923,0.43826389,-0.65310419,
p, 9041,-0.74246931,0.62195027,-0.84964448,0.05602540,-0.61732459,0.43921682,-0.65024734,
p, 9051,-0.73960471,0.62539774,-0.83488691,0.05650140,-0.62085223,0.44051415,-0.64594531,
p, 9061,-0.73817241,0.62712145,-0.82750815,0.05673940,-0.62261605,0.44116279,-0.64379430,
p, 9071,-0.73131460,0.62178826,-0.81436598,0.05721505,-0.62583935,0.44227174,-0.63984585,
p, 9081,-0.72565031,0.62305844,-0.80799323,0.05769211,-0.62920666,0.44338173,-0.63571304,
p, 9092,-0.72273421,0.61808592,-0.81554139,0.05810948,-0.63207746,0.44430763,-0.63217413,
u, 9093,,,,,,,,0.00000000,0.00000000
p, 9103,-0.72876060,0.61901760,-0.79503113,0.05847654,-0.63465083,0.44512776,-0.62898207,
p, 9113,-0.72850078,0.61360884,-0.79146695,0.05878626,-0.63706124,0.44592696,-0.62594706,
p, 9123,-0.73211694,0.61895347,-0.78046858,0.05912418,-0.63942230,0.44668165,-0.62296510,
p, 9133,-0.73936474,0.61379802,-0.77214652,0.05948520,-0.64175165,0.44739401,-0.62001884,
p, 9143,-0.73038489,0.61919302,-0.76515496,0.05981063,-0.64406288,0.44808862,-0.61708343,
p, 9153,-0.71985245,0.61274290,-0.75292355,0.06029515,-0.64745575,0.44911408,-0.61271119,
p, 9163,-0.71458626,0.60951781,-0.74680781,0.06053741,-0.64915216,0.44962680,-0.61052507,
p, 9173,-0.71793461,0.60787475,-0.73431242,0.06111719,-0.65284705,0.45058531,-0.60578465,
p, 9184,-0.71323061,0.60789245,-0.73433608,0.06158151,-0.65583277,0.45134082,-0.60193974,
u, 9194,,,,,,,,0.00000000,0.00000000
p, 9195,-0.71501374,0.61212039,-0.71554148,0.06195470,-0.65843797,0.45198953,-0.59856677,
p, 9205,-0.71511948,0.60476625,-0.71466619,0.06227618,-0.66084576,0.45259649,-0.59541804,
p, 9215,-0.70777947,0.59871644,-0.70570648,0.06256638,-0.66312826,0.45318988,-0.59239459,
p, 9225,-0.71086144,0.60255802,-0.70221847,0.06290451,-0.66541529,0.45368028,-0.58941352,
p, 9235,-0.70545208,0.60401338,-0.69315791,0.06324983,-0.66768360,0.45414367,-0.58644831,
p, 9245,-0.70274740,0.60645008,-0.68263853,0.06367280,-0.67098057,0.45487556,-0.58204216,
p, 9255,-0.70323372,0.59629297,-0.67261046,0.06416343,-0.67430824,0.45549923,-0.57763112,
p, 9266,-0.70112705,0.59579206,-0.65990603,0.06461427,-0.67711902,0.45591286,-0.57395935,
p, 9277,-0.69547319,0.58916342,-0.65757447,0.06499594,-0.67960286,0.45631695,-0.57065606,
p, 9288,-0.69805551,0.58797771,-0.64773405,0.06532285,-0.68192631,0.45671177,-0.56752741,
u, 9295,,,,,,,,0.00000000,0.00000000
p, 9298,-0.69377720,0.58801806,-0.64810103,0.06561498,-0.68416506,0.45707667,-0.56450081,
p, 9308,-0.69211870,0.58111840,-0.63574946,0.06588352,-0.68633556,0.45745826,-0.56151998,
p, 9318,-0.68540716,0.58966196,-0.62019712,0.06633839,-0.68958777,0.45790029,-0.55709028,
p, 9328,-0.69006991,0.58137578,-0.61071956,0.06668808,-0.69224250,0.45829225,-0.55342358,
p, 9338,-0.69240129,0.57723272,-0.60598081,0.06686293,-0.69356984,0.45848823,-0.55159020,
p, 9348,-0.68876809,0.57589358,-0.60055971,0.06731798,-0.69689476,0.45886266,-0.54699636,
p, 9359,-0.68420494,0.57604802,-0.58671021,0.06769788,-0.69960463,0.45912787,-0.54325628,
p, 9370,-0.67523998,0.58127505,-0.58834565,0.06802414,-0.70203626,0.45933038,-0.53990167,
p, 9381,-0.67035317,0.57226133,-0.58528763,0.06842064,-0.70482898,0.45951664,-0.53603780,
p, 9392,-0.67680562,0.56537414,-0.57509923,0.06874990,-0.70724076,0.45969850,-0.53265607,
u, 9395,,,,,,,,0.00000000,0.00000000
p, 9402,-0.67503458,0.56635559,-0.56307757,0.06908929,-0.70951605,0.45977864,-0.52951181,
p, 9412,-0.66815996,0.56807464,-0.56383401,0.06943886,-0.71172583,0.45978677,-0.52648771,
p, 9422,-0.67387795,0.56602740,-0.55235612,0.06988935,-0.71487820,0.45986494,-0.52205688,
p, 9432,-0.65875447,0.56037271,-0.53955239,0.07022282,-0.71744210,0.45994467,-0.51841468,
p, 9443,-0.66024882,0.55804127,-0.53386009,0.07056302,-0.71976066,0.45996484,-0.51513124,
p, 9454,-0.65789080,0.55367887,-0.52375072,0.07088900,-0.72194743,0.45991877,-0.51206279,
p, 9464,-0.64895272,0.55074233,-0.51729989,0.07120684,-0.72406083,0.45984176,-0.50909835,
p, 9474,-0.65570652,0.54682505,-0.51633275,0.07149491,-0.72609633,0.45981318,-0.50617850,
p, 9484,-0.65348345,0.54506475,-0.50909716,0.07174592,-0.72809160,0.45979893,-0.50328302,
p, 9494,-0.64420843,0.54482543,-0.50615072,0.07209194,-0.73060817,0.45966238,-0.49969232,
u, 9495,,,,,,,,0.00000000,0.00000000
p, 9504,-0.64223361,0.54389709,-0.50479198,0.07238344,-0.73285186,0.45955467,-0.49645376,
p, 9514,-0.63828599,0.53644443,-0.49591863,0.07287909,-0.73603117,0.45919675,-0.49197403,
p, 9524,-0.63212365,0.53654802,-0.48875064,0.07326873,-0.73860902,0.45890892,-0.48831075,
p, 9535,-0.63435256,0.53699654,-0.48732576,0.07360229,-0.74088383,0.45865357,-0.48504937,
p, 9546,-0.62080330,0.54415596,-0.47539049,0.07388496,-0.74301505,0.45837373,-0.48200655,
p, 9556,-0.62324500,0.54370731,-0.46943048,0.07414554,-0.74505538,0.45811018,-0.47906217,
p, 9566,-0.62171924,0.53602910,-0.46648860,0.07437099,-0.74702197,0.45787531,-0.47618306,
p, 9576,-0.61935419,0.49914706,-0.47665250,0.07477507,-0.74947900,0.45752010,-0.47258061,
p, 9586,-0.68077850,0.27925187,-0.38326949,0.07537336,-0.75114322,0.45720255,-0.47015208,
u, 9595,,,,,,,,0.00000000,0.00000000
p, 9597,-0.57335281,0.06678048,-0.45999870,0.07636491,-0.75248563,0.45680118,-0.46823823,
p, 9607,-0.63065529,0.45597476,-0.43653470,0.07748604,-0.75444365,0.45530009,-0.46636027,
p, 9617,-0.55412769,0.22169313,-0.64314830,0.07857621,-0.75643218,0.45349050,-0.46471614,
p, 9627,-0.51586390,0.10455231,-0.74645513,0.07912131,-0.75742644,0.45258570,-0.46389407,
p, 9637,-0.63258100,0.17689469,-0.49030825,0.07911160,-0.75834179,0.45261252,-0.46237552,
p, 9648,-0.69666922,0.52645087,-0.48845553,0.07920745,-0.75879031,0.45264101,-0.46159923,
p, 9659,-0.70947200,0.66150272,-0.72324693,0.07920685,-0.75909567,0.45258638,-0.46115333,
p, 9669,-0.62752497,0.46098512,-0.73866814,0.07905877,-0.75926179,0.45263037,-0.46086362,
p, 9679,-0.49421293,0.54561710,-0.32061276,0.07879367,-0.75964427,0.45267791,-0.46023178,
p, 9689,-0.49561110,0.45591402,-0.22582762,0.07878090,-0.75972760,0.45275849,-0.46001795,
u, 9696,,,,,,,,-0.00777875,0.00777875
p, 9699,-0.73808569,0.69161820,-0.47724792,0.07898355,-0.75996327,0.45315635,-0.45920086,
p, 9709,-0.69401693,0.58714974,-0.67359102,0.07901842,-0.76012677,0.45337182,-0.45871168,
p, 9719,-0.64127421,0.49511296,-0.60605210,0.07896005,-0.76031625,0.45339739,-0.45838261,
p, 9729,-0.65000570,0.34543398,-0.40165886,0.07908531,-0.76031315,0.45342425,-0.45833996,
p, 9740,-0.74344462,0.57301605,-0.53762144,0.07919090,-0.76022685,0.45351207,-0.45837808,
p, 9751,-0.57818139,0.70186752,-0.64744234,0.07924573,-0.76023889,0.45354596,-0.45831528,
p, 9762,-0.54413372,0.55448604,-0.58160996,0.07902057,-0.76063955,0.45364895,-0.45758611,
p, 9773,-0.32862356,0.57013547,-0.31967461,0.07895346,-0.76089573,0.45361590,-0.45720464,
p, 9783,-0.55817163,0.42658538,-0.28528744,0.07893819,-0.76086438,0.45365483,-0.45722109,
p, 9793,-0.67801923,0.57146227,-0.43212584,0.07896482,-0.76117414,0.45394897,-0.45640749,
u, 9797,,,,,,,,-0.00793433,-0.01540193
p, 9803,-0.57062280,0.40201074,-0.60785520,0.07881388,-0.76148289,0.45396486,-0.45590264,
p, 9813,-0.41249341,0.40470257,-0.24608916,0.07874744,-0.76163542,0.45393291,-0.45569143,
p, 9824,-0.50718057,0.48495167,-0.20113906,0.07885477,-0.76163828,0.45393556,-0.45566571,
p, 9835,-0.67164296,0.64073789,-0.45239908,0.07900068,-0.76177990,0.45420966,-0.45512995,
p, 9846,-0.58418882,0.65715331,-0.71016252,0.07899798,-0.76192182,0.45433480,-0.45476800,
p, 9856,-0.54866332,0.37574157,-0.63456124,0.07884250,-0.76206756,0.45434600,-0.45453960,
p, 9866,-0.39456329,0.48699647,-0.27048191,0.07881723,-0.76218307,0.45433927,-0.45435715,
p, 9876,-0.56247789,0.45604554,-0.13620989,0.07892279,-0.76211619,0.45432127,-0.45446911,
p, 9886,-0.67409170,0.59545439,-0.51059455,0.07908132,-0.76229531,0.45456776,-0.45389390,
p, 9897,-0.65123194,0.43603286,-0.64123785,0.07905836,-0.76254487,0.45463774,-0.45340824,
u, 9898,,,,,,,,0.00762006,-0.00808679
p, 9908,-0.51450455,0.51805001,-0.23027164,0.07908595,-0.76280934,0.45482534,-0.45276973,
p, 9919,-0.45558602,0.49222508,-0.16731325,0.07925378,-0.76287425,0.45492631,-0.45252985,
p, 9929,-0.67766023,0.50293320,-0.34457427,0.07938339,-0.76281810,0.45499152,-0.45253649,
p, 9939,-0.70768845,0.64154232,-0.52330029,0.07939754,-0.76277196,0.45505092,-0.45255214,
p, 9949,-0.68389183,0.51865476,-0.61899573,0.07931384,-0.76287496,0.45501345,-0.45243087,
p, 9959,-0.49012402,0.49525878,-0.22881702,0.07924147,-0.76310056,0.45512396,-0.45195144,
p, 9969,-0.60519230,0.47056031,-0.19922449,0.07923892,-0.76311457,0.45522892,-0.45182270,
p, 9979,-0.56548220,0.65466034,-0.55556011,0.07927223,-0.76338899,0.45561326,-0.45096421,
p, 9990,-0.59676695,0.47474533,-0.65576315,0.07918088,-0.76358753,0.45575058,-0.45050538,
u, 9999,,,,,,,,0.00015240,-0.00016174
p, 10001,-0.49952483,0.36061028,-0.36518931,0.07911243,-0.76401788,0.45598683,-0.44954681,
p, 10011,-0.42838943,0.36513484,-0.09342229,0.07923260,-0.76416409,0.45609814,-0.44916475,
p, 10021,-0.64098305,0.29195768,-0.31041354,0.07934156,-0.76410770,0.45618588,-0.44915289,
p, 10031,-0.55189109,0.47215071,-0.42080125,0.07929149,-0.76451069,0.45634314,-0.44831473,
p, 10041,-0.71702373,0.63487142,-0.57229334,0.07917364,-0.76471126,0.45636374,-0.44797283,
p, 10051,-0.36774343,0.40766093,-0.40959790,0.07906253,-0.76509362,0.45638865,-0.44731343,
p, 10061,-0.80171537,0.82702994,-0.36021733,0.07892786,-0.76519156,0.45656633,-0.44698855,
p, 10071,-0.69896102,0.33572567,-0.78819430,0.07881956,-0.76524556,0.45663166,-0.44684881,
p, 10082,-0.91209495,0.25521940,-0.83593065,0.07863092,-0.76540935,0.45669633,-0.44653532,
p, 10093,-0.61614269,0.18614241,-0.67750204,0.07843406,-0.76557922,0.45667377,-0.44630188,
u, 10100,,,,,,,,0.00000305,-0.00000323
p, 10103,-0.40478155,0.35677361,-0.43977946,0.07831182,-0.76557517,0.45671365,-0.44628960,
p, 10113,-0.67326176,0.08576596,-0.53817284,0.07836783,-0.76558924,0.45712417,-0.44583476,
p, 10123,-0.43556124,0.38010985,-0.88331372,0.07817897,-0.76526296,0.45759436,-0.44594550,
p, 10133,-0.62702894,0.39703277,-0.64101291,0.07805838,-0.76549828,0.45800197,-0.44514292,
p, 10143,-0.55162787,0.52342939,-0.25987566,0.07805131,-0.76565862,0.45812404,-0.44474304,
p, 10153,-0.54318607,0.46256614,-0.13683480,0.07816139,-0.76570654,0.45815992,-0.44460469,
p, 10163,-0.54008669,0.64871013,-0.44556889,0.07834361,-0.76581645,0.45862573,-0.44390193,
p, 10174,-0.49617097,0.49426931,-0.60645908,0.07830030,-0.76588243,0.45887399,-0.44353935,
p, 10184,-0.47421312,0.41704890,-0.68690419,0.07827864,-0.76591539,0.45899814,-0.44335806,
p, 10195,-0.51679254,0.40952086,-0.36353266,0.07832739,-0.76593524,0.45896024,-0.44335461,
u, 10200,,,,,,,,0.00000006,-0.00777881
p, 10206,-0.69259274,0.43482482,-0.54433805,0.07859257,-0.76614845,0.45928985,-0.44259647,
p, 10216,-0.65718657,0.67893738,-0.60861003,0.07867854,-0.76619709,0.45955288,-0.44222409,
p, 10226,-0.53550243,0.56323123,-0.64863485,0.07863760,-0.76628971,0.45966125,-0.44195849,
p, 10236,-0.46355200,0.43795717,-0.35799357,0.07853098,-0.76661718,0.45983613,-0.44122645,
p, 10246,-0.72986102,0.44373292,-0.42711997,0.07861507,-0.76685774,0.46014285,-0.44047278,
p, 10256,-0.86301553,0.44662079,-0.46168315,0.07865711,-0.76697803,0.46029621,-0.44009593,
p, 10266,-0.63999623,0.31272691,-0.50183004,0.07852285,-0.76711380,0.46042755,-0.43974587,
p, 10277,-0.46528468,0.41545770,-0.20429179,0.07849845,-0.76723158,0.46039936,-0.43957454,
p, 10288,-0.46477431,0.39285612,-0.12770437,0.07863689,-0.76725882,0.46035093,-0.43955314,
p, 10299,-0.70890391,0.43798232,-0.38041866,0.07878283,-0.76715088,0.46040189,-0.43966216,
u, 10300,,,,,,,,0.00000000,0.00762317
p, 10309,-0.71396428,0.67433631,-0.52594084,0.07883301,-0.76712632,0.46044713,-0.43964863,
p, 10319,-0.64062011,0.45653766,-0.57702684,0.07872771,-0.76718736,0.46044981,-0.43955818,
p, 10330,-0.44521087,0.47566721,-0.24494195,0.07879783,-0.76727080,0.46034089,-0.43951410,
p, 10340,-0.50041461,0.41849005,-0.19043362,0.07884336,-0.76721549,0.46033543,-0.43960819,
p, 10350,-0.69987619,0.51648837,-0.48068434,0.07903682,-0.76741290,0.46068737,-0.43885866,
p, 10360,-0.67739171,0.40979448,-0.52520847,0.07893739,-0.76761305,0.46083587,-0.43837041,
p, 10371,-0.49845538,0.48813850,-0.20243883,0.07883784,-0.76793224,0.46097499,-0.43768224,
p, 10382,-0.45510691,0.52287781,-0.00947595,0.07891433,-0.76807082,0.46099484,-0.43740475,
p, 10392,-0.61920083,0.45974213,-0.29750836,0.07903278,-0.76800156,0.46110463,-0.43738952,
u, 10401,,,,,,,,-0.15557501,-0.00762629
p, 10403,-0.65946919,0.59329724,-0.56147391,0.07902617,-0.76801455,0.46117282,-0.43729624,
p, 10413,-0.64946723,0.43841040,-0.53128624,0.07890980,-0.76807505,0.46115097,-0.43723404,
p, 10423,-0.52508152,0.59483081,-0.17022228,0.07889681,-0.76816660,0.46104813,-0.43718407,
p, 10433,-0.71929735,0.56131613,-0.43463659,0.07918909,-0.76823217,0.46142608,-0.43661630,
p, 10443,-0.62850857,0.66707164,-0.61744189,0.07932568,-0.76828450,0.46168402,-0.43622664,
p, 10454,-0.57961988,0.51944888,-0.64209497,0.07924248,-0.76837999,0.46175158,-0.43600225,
p, 10465,-0.39837623,0.52635652,-0.14822644,0.07929111,-0.76873332,0.46185362,-0.43526125,
p, 10476,-0.46101367,0.39169541,-0.13099036,0.07946286,-0.76883817,0.46191251,-0.43498254,
p, 10486,-0.62139124,0.48082083,-0.42886037,0.07959715,-0.76878351,0.46207052,-0.43488699,
p, 10496,-0.62932968,0.63735259,-0.60800779,0.07961499,-0.76876932,0.46216226,-0.43481147,
u, 10502,,,,,,,,-0.00311150,-0.00015253
p, 10506,-0.56867790,0.47093612,-0.61976165,0.07949341,-0.76884812,0.46216357,-0.43469304,
p, 10516,-0.50421047,0.36917320,-0.32877120,0.07958381,-0.76886988,0.46205854,-0.43474966,
p, 10527,-0.68803358,0.41495615,-0.46793634,0.07975110,-0.76897806,0.46237355,-0.43419194,
p, 10538,-0.68199134,0.68175173,-0.59119165,0.07982002,-0.76900911,0.46259201,-0.43389162,
p, 10549,-0.64632404,0.55799317,-0.65896100,0.07971670,-0.76911271,0.46266529,-0.43364894,
p, 10559,-0.55339426,0.45686066,-0.34560904,0.07961124,-0.76925492,0.46258867,-0.43349797,
p, 10569,-0.43922612,0.55616623,-0.02034633,0.07971713,-0.76933110,0.46248192,-0.43345726,
p, 10579,-0.50116825,0.27643517,-0.41266951,0.07989682,-0.76916879,0.46261555,-0.43356955,
p, 10589,-0.37208223,0.57458842,-0.30051202,0.07957201,-0.76933706,0.46277922,-0.43315560,
p, 10599,-0.45371079,0.51661855,-0.24108395,0.07901055,-0.76971722,0.46285933,-0.43249610,
u, 10603,,,,,,,,-0.00784098,-0.00000305
p, 10609,-0.51178277,0.54719627,-0.31023163,0.07812469,-0.77108777,0.46344414,-0.42956665,
p, 10620,-0.52799374,0.54197735,-0.34229538,0.07744553,-0.77232766,0.46403372,-0.42681235,
p, 10631,-0.53400111,0.51056695,-0.37194574,0.07685935,-0.77347004,0.46466687,-0.42415118,
